whichBlock,practice,numberReps,taskNameSource,taskTextSource,cueReminderTextSource,whichFace,whichCue,center,surround,rotCenter,rotSurround,blueCenter,blueSurround,ethnicity,male,identity,scramFace,prac_BlockLoop.thisRepN,prac_BlockLoop.thisTrialN,prac_BlockLoop.thisN,prac_BlockLoop.thisIndex,prac_trialLoop.thisRepN,prac_trialLoop.thisTrialN,prac_trialLoop.thisN,prac_trialLoop.thisIndex,prac_cueLoop.thisRepN,prac_cueLoop.thisTrialN,prac_cueLoop.thisN,prac_cueLoop.thisIndex,prac_stimLoop.thisRepN,prac_stimLoop.thisTrialN,prac_stimLoop.thisN,prac_stimLoop.thisIndex,begin_text1.started,begin_text1.stopped,pracImage_center.started,pracImage_center.stopped,pracImage_top.started,pracImage_top.stopped,pracImage_right.started,pracImage_right.stopped,pracImage_bottom.started,pracImage_bottom.stopped,pracImage_left.started,pracImage_left.stopped,begin_keyResp.keys,begin_keyResp.rt,begin_keyResp.started,begin_keyResp.stopped,begin_text2.started,begin_text2.stopped,begin_text1_4.started,begin_text1_4.stopped,pracImage_center_2.started,pracImage_center_2.stopped,pracImage_top_2.started,pracImage_top_2.stopped,pracImage_right_2.started,pracImage_right_2.stopped,pracImage_bottom_2.started,pracImage_bottom_2.stopped,pracImage_left_2.started,pracImage_left_2.stopped,begin_keyResp_4.keys,begin_keyResp_4.rt,begin_keyResp_4.started,begin_keyResp_4.stopped,begin_text2_4.started,begin_text2_4.stopped,begin_text1_3a.started,begin_text1_3a.stopped,begin_text2_3a.started,begin_text2_3a.stopped,begin_keyResp_3a.keys,begin_keyResp_3a.rt,begin_keyResp_3a.started,begin_keyResp_3a.stopped,taskName.started,taskName.stopped,task_Text.started,task_Text.stopped,leftKey_text.started,leftKey_text.stopped,rightKey_text.started,rightKey_text.stopped,task_text5.started,task_text5.stopped,LeftReminder_text.started,LeftReminder_text.stopped,rightReminder_text.started,rightReminder_text.stopped,pracOrMain_keyResp.keys,pracOrMain_keyResp.rt,pracOrMain_keyResp.started,pracOrMain_keyResp.stopped,taskName_2.started,taskName_2.stopped,task_Text_2.started,task_Text_2.stopped,task_text_3.started,task_text_3.stopped,task_text_4.started,task_text_4.stopped,LeftReminder_text_5.started,LeftReminder_text_5.stopped,rightReminder_text_5.started,rightReminder_text_5.stopped,pracOrMain_keyResp_3.keys,pracOrMain_keyResp_3.rt,pracOrMain_keyResp_3.started,pracOrMain_keyResp_3.stopped,RSI,LeftReminder_text_6.started,LeftReminder_text_6.stopped,rightReminder_text_6.started,rightReminder_text_6.stopped,cuePresented_2.started,cuePresented_2.stopped,ISI,corrAns,LeftReminder_text_7.started,LeftReminder_text_7.stopped,rightReminder_text_7.started,rightReminder_text_7.stopped,centerPresented_2.started,centerPresented_2.stopped,topPresented_2.started,topPresented_2.stopped,rightPresented_2.started,rightPresented_2.stopped,bottomPresented_2.started,bottomPresented_2.stopped,leftPresented_2.started,leftPresented_2.stopped,keyResp_2.keys,keyResp_2.corr,keyResp_2.started,keyResp_2.stopped,keyResp_2.rt,participant,session,date,expName,psychopyVersion,frameRate,
,,,,,,,,,,,,,,,,,,,,,,,,,,,,,,,,,,10.993476300034672,None,10.993476300034672,None,10.993476300034672,None,10.993476300034672,None,10.993476300034672,None,10.993476300034672,None,space,20.83041699999012,10.993476300034672,None,,,,,,,,,,,,,,,,,,,,,,,,,,,,,,,,,,,,,,,,,,,,,,,,,,,,,,,,,,,,,,,,,,,,,,,,,,,,,,,,,,,,,,,,,,,,001,2022_Jan_27_1913,multiEF-Inhib,2021.2.3,240.6211881314866,
,,,,,,,,,,,,,,,,,,,,,,,,,,,,,,,,,,,,,,,,,,,,,,,,,,10.993476300034672,None,31.838804099941626,None,31.838804099941626,None,31.838804099941626,None,31.838804099941626,None,31.838804099941626,None,31.838804099941626,None,space,0.9152446000371128,31.838804099941626,None,,,,,,,,,,,,,,,,,,,,,,,,,,,,,,,,,,,,,,,,,,,,,,,,,,,,,,,,,,,,,,,,,,,,,,,,,,001,2022_Jan_27_1913,multiEF-Inhib,2021.2.3,240.6211881314866,
,,,,,,,,,,,,,,,,,,,,,,,,,,,,,,,,,,,,,,,,,,,,,,,,,,,,,,,,,,,,,,,,,,,,31.838804099941626,None,32.767719600116834,None,32.767719600116834,None,space,0.2452974000480026,32.767719600116834,None,,,,,,,,,,,,,,,,,,,,,,,,,,,,,,,,,,,,,,,,,,,,,,,,,,,,,,,,,,,,,,,,001,2022_Jan_27_1913,multiEF-Inhib,2021.2.3,240.6211881314866,
shape.xlsx,1,1,SHAPE Game Practice,"



In this game, you have to focus on the SHAPE of the center image

Press the Z key with your left index finger, if:

Press the M key with your right index finger, if:


Labels in the lower-left and lower-right of the screen will remind you
which hand to use for which SHAPE. Ignore the color words for now.","






The word SHAPE will be presented before each image to remind you what to do.",face2M1_Sc.xlsx,SHAPE,,,,,,,,,,,0,0,0,1,0,0,0,3,0,0,0,0,,,,,,,,,,,,,,,,,,,,,,,,,,,,,,,,,,,,,,,,,,,,,,,,,33.08782729995437,None,33.08782729995437,None,33.08782729995437,None,33.08782729995437,None,33.08782729995437,None,33.08782729995437,None,33.08782729995437,None,space,0.12635419983416796,33.08782729995437,None,33.259616600116715,None,33.259616600116715,None,33.259616600116715,None,33.259616600116715,None,33.259616600116715,None,33.259616600116715,None,z,1.6634121001698077,33.259616600116715,None,1.371743486973948,34.953730599954724,None,34.953730599954724,None,36.32343850005418,None,,,,,,,,,,,,,,,,,,,,,,,001,2022_Jan_27_1913,multiEF-Inhib,2021.2.3,240.6211881314866,
shape.xlsx,1,1,SHAPE Game Practice,"



In this game, you have to focus on the SHAPE of the center image

Press the Z key with your left index finger, if:

Press the M key with your right index finger, if:


Labels in the lower-left and lower-right of the screen will remind you
which hand to use for which SHAPE. Ignore the color words for now.","






The word SHAPE will be presented before each image to remind you what to do.",face2M1_Sc.xlsx,,images/2M1_Sc_BS.jpg,images/2M1_Sc_BS.jpg,0,0,1,1,2,1,1,1,0,0,0,1,0,0,0,3,,,,,0,0,0,10,,,,,,,,,,,,,,,,,,,,,,,,,,,,,,,,,,,,,,,,,,,,,,,,,,,,,,,,,,,,,,,,,,,,,,,,,,,,,,,,,,,,,,1.185370741482966,z,37.39047139999457,None,37.39047139999457,None,38.57100210012868,39.574621699983254,38.57100210012868,39.574621699983254,38.57100210012868,39.574621699983254,38.57100210012868,39.574621699983254,38.57100210012868,39.574621699983254,None,0,38.57100210012868,40.076169200008735,,,001,2022_Jan_27_1913,multiEF-Inhib,2021.2.3,240.6211881314866,
shape.xlsx,1,1,SHAPE Game Practice,"



In this game, you have to focus on the SHAPE of the center image

Press the Z key with your left index finger, if:

Press the M key with your right index finger, if:


Labels in the lower-left and lower-right of the screen will remind you
which hand to use for which SHAPE. Ignore the color words for now.","






The word SHAPE will be presented before each image to remind you what to do.",face2M1_Sc.xlsx,,,,,,,,,,,,0,0,0,1,0,0,0,3,,,,,,,,,,,,,,,,,,,,,,,,,,,,,,,,,,,,,,,,,,,,,,,,,,,,,,,,,,,,,,,,,,,,,,,,,,,,,,,,,,,,,,,,,,,,,,,,,,,,,,,,,,,,,,,,,,,,001,2022_Jan_27_1913,multiEF-Inhib,2021.2.3,240.6211881314866,
shape.xlsx,1,1,SHAPE Game Practice,"



In this game, you have to focus on the SHAPE of the center image

Press the Z key with your left index finger, if:

Press the M key with your right index finger, if:


Labels in the lower-left and lower-right of the screen will remind you
which hand to use for which SHAPE. Ignore the color words for now.","






The word SHAPE will be presented before each image to remind you what to do.",face3M1_Fa.xlsx,SHAPE,,,,,,,,,,,0,0,0,1,0,1,1,4,0,0,0,0,,,,,,,,,,,,,,,,,,,,,,,,,,,,,,,,,,,,,,,,,,,,,,,,,,,,,,,,,,,,,,,,,,,,,,,,,,,,,,,,,,,1.285571142284569,40.09898530016653,None,40.09898530016653,None,41.383244400145486,None,,,,,,,,,,,,,,,,,,,,,,,001,2022_Jan_27_1913,multiEF-Inhib,2021.2.3,240.6211881314866,
shape.xlsx,1,1,SHAPE Game Practice,"



In this game, you have to focus on the SHAPE of the center image

Press the Z key with your left index finger, if:

Press the M key with your right index finger, if:


Labels in the lower-left and lower-right of the screen will remind you
which hand to use for which SHAPE. Ignore the color words for now.","






The word SHAPE will be presented before each image to remind you what to do.",face3M1_Fa.xlsx,,images/3M1_Fa_OD.jpg,images/3M1_Fa_OD.jpg,45,45,0,0,3,1,1,0,0,0,0,1,0,1,1,4,,,,,0,0,0,5,,,,,,,,,,,,,,,,,,,,,,,,,,,,,,,,,,,,,,,,,,,,,,,,,,,,,,,,,,,,,,,,,,,,,,,,,,,,,,,,,,,,,,1.314629258517034,z,42.44159170007333,None,42.44159170007333,None,43.75164670008235,None,43.75164670008235,None,43.75164670008235,None,43.75164670008235,None,43.75164670008235,None,z,1,43.75164670008235,None,0.532922700047493,,001,2022_Jan_27_1913,multiEF-Inhib,2021.2.3,240.6211881314866,
shape.xlsx,1,1,SHAPE Game Practice,"



In this game, you have to focus on the SHAPE of the center image

Press the Z key with your left index finger, if:

Press the M key with your right index finger, if:


Labels in the lower-left and lower-right of the screen will remind you
which hand to use for which SHAPE. Ignore the color words for now.","






The word SHAPE will be presented before each image to remind you what to do.",face3M1_Fa.xlsx,,,,,,,,,,,,0,0,0,1,0,1,1,4,,,,,,,,,,,,,,,,,,,,,,,,,,,,,,,,,,,,,,,,,,,,,,,,,,,,,,,,,,,,,,,,,,,,,,,,,,,,,,,,,,,,,,,,,,,,,,,,,,,,,,,,,,,,,,,,,,,,001,2022_Jan_27_1913,multiEF-Inhib,2021.2.3,240.6211881314866,
shape.xlsx,1,1,SHAPE Game Practice,"



In this game, you have to focus on the SHAPE of the center image

Press the Z key with your left index finger, if:

Press the M key with your right index finger, if:


Labels in the lower-left and lower-right of the screen will remind you
which hand to use for which SHAPE. Ignore the color words for now.","






The word SHAPE will be presented before each image to remind you what to do.",face4F1_Sc.xlsx,SHAPE,,,,,,,,,,,0,0,0,1,0,2,2,7,0,0,0,0,,,,,,,,,,,,,,,,,,,,,,,,,,,,,,,,,,,,,,,,,,,,,,,,,,,,,,,,,,,,,,,,,,,,,,,,,,,,,,,,,,,1.1062124248496994,44.31698830006644,None,44.31698830006644,None,45.4198927001562,None,,,,,,,,,,,,,,,,,,,,,,,001,2022_Jan_27_1913,multiEF-Inhib,2021.2.3,240.6211881314866,
shape.xlsx,1,1,SHAPE Game Practice,"



In this game, you have to focus on the SHAPE of the center image

Press the Z key with your left index finger, if:

Press the M key with your right index finger, if:


Labels in the lower-left and lower-right of the screen will remind you
which hand to use for which SHAPE. Ignore the color words for now.","






The word SHAPE will be presented before each image to remind you what to do.",face4F1_Sc.xlsx,,images/4F1_Sc_OD.jpg,images/4F1_Sc_OD.jpg,45,45,0,0,4,0,1,1,0,0,0,1,0,2,2,7,,,,,0,0,0,5,,,,,,,,,,,,,,,,,,,,,,,,,,,,,,,,,,,,,,,,,,,,,,,,,,,,,,,,,,,,,,,,,,,,,,,,,,,,,,,,,,,,,,1.1653306613226453,z,46.480734599987045,None,46.480734599987045,None,47.64108400000259,48.64377399999648,47.64108400000259,48.64377399999648,47.64108400000259,48.64377399999648,47.64108400000259,48.64377399999648,47.64108400000259,48.64377399999648,None,0,47.64108400000259,49.14696789998561,,,001,2022_Jan_27_1913,multiEF-Inhib,2021.2.3,240.6211881314866,
shape.xlsx,1,1,SHAPE Game Practice,"



In this game, you have to focus on the SHAPE of the center image

Press the Z key with your left index finger, if:

Press the M key with your right index finger, if:


Labels in the lower-left and lower-right of the screen will remind you
which hand to use for which SHAPE. Ignore the color words for now.","






The word SHAPE will be presented before each image to remind you what to do.",face4F1_Sc.xlsx,,,,,,,,,,,,0,0,0,1,0,2,2,7,,,,,,,,,,,,,,,,,,,,,,,,,,,,,,,,,,,,,,,,,,,,,,,,,,,,,,,,,,,,,,,,,,,,,,,,,,,,,,,,,,,,,,,,,,,,,,,,,,,,,,,,,,,,,,,,,,,,001,2022_Jan_27_1913,multiEF-Inhib,2021.2.3,240.6211881314866,
shape.xlsx,1,1,SHAPE Game Practice,"



In this game, you have to focus on the SHAPE of the center image

Press the Z key with your left index finger, if:

Press the M key with your right index finger, if:


Labels in the lower-left and lower-right of the screen will remind you
which hand to use for which SHAPE. Ignore the color words for now.","






The word SHAPE will be presented before each image to remind you what to do.",face2M1_Fa.xlsx,SHAPE,,,,,,,,,,,0,0,0,1,0,3,3,2,0,0,0,0,,,,,,,,,,,,,,,,,,,,,,,,,,,,,,,,,,,,,,,,,,,,,,,,,,,,,,,,,,,,,,,,,,,,,,,,,,,,,,,,,,,1.1392785571142285,49.17070270003751,None,49.17070270003751,None,50.30666420003399,51.30765640013851,,,,,,,,,,,,,,,,,,,,,,,001,2022_Jan_27_1913,multiEF-Inhib,2021.2.3,240.6211881314866,
shape.xlsx,1,1,SHAPE Game Practice,"



In this game, you have to focus on the SHAPE of the center image

Press the Z key with your left index finger, if:

Press the M key with your right index finger, if:


Labels in the lower-left and lower-right of the screen will remind you
which hand to use for which SHAPE. Ignore the color words for now.","






The word SHAPE will be presented before each image to remind you what to do.",face2M1_Fa.xlsx,,images/2M1_Fa_BD.jpg,images/2M1_Fa_BD.jpg,45,45,1,1,2,1,1,0,0,0,0,1,0,3,3,2,,,,,0,0,0,0,,,,,,,,,,,,,,,,,,,,,,,,,,,,,,,,,,,,,,,,,,,,,,,,,,,,,,,,,,,,,,,,,,,,,,,,,,,,,,,,,,,,,,1.4569138276553106,z,51.365142500028014,None,51.365142500028014,None,52.81924720015377,53.82550020003691,52.81924720015377,53.82550020003691,52.81924720015377,53.82550020003691,52.81924720015377,53.82550020003691,52.81924720015377,53.82550020003691,None,0,52.81924720015377,None,,,001,2022_Jan_27_1913,multiEF-Inhib,2021.2.3,240.6211881314866,
shape.xlsx,1,1,SHAPE Game Practice,"



In this game, you have to focus on the SHAPE of the center image

Press the Z key with your left index finger, if:

Press the M key with your right index finger, if:


Labels in the lower-left and lower-right of the screen will remind you
which hand to use for which SHAPE. Ignore the color words for now.","






The word SHAPE will be presented before each image to remind you what to do.",face2M1_Fa.xlsx,,,,,,,,,,,,0,0,0,1,0,3,3,2,,,,,,,,,,,,,,,,,,,,,,,,,,,,,,,,,,,,,,,,,,,,,,,,,,,,,,,,,,,,,,,,,,,,,,,,,,,,,,,,,,,,,,,,,,,,,,,,,,,,,,,,,,,,,,,,,,,,001,2022_Jan_27_1913,multiEF-Inhib,2021.2.3,240.6211881314866,
shape.xlsx,1,1,SHAPE Game Practice,"



In this game, you have to focus on the SHAPE of the center image

Press the Z key with your left index finger, if:

Press the M key with your right index finger, if:


Labels in the lower-left and lower-right of the screen will remind you
which hand to use for which SHAPE. Ignore the color words for now.","






The word SHAPE will be presented before each image to remind you what to do.",face3M1_Sc.xlsx,SHAPE,,,,,,,,,,,0,0,0,1,0,4,4,5,0,0,0,0,,,,,,,,,,,,,,,,,,,,,,,,,,,,,,,,,,,,,,,,,,,,,,,,,,,,,,,,,,,,,,,,,,,,,,,,,,,,,,,,,,,1.1783567134268538,54.34145459998399,None,54.34145459998399,None,55.51634950004518,56.51866880012676,,,,,,,,,,,,,,,,,,,,,,,001,2022_Jan_27_1913,multiEF-Inhib,2021.2.3,240.6211881314866,
shape.xlsx,1,1,SHAPE Game Practice,"



In this game, you have to focus on the SHAPE of the center image

Press the Z key with your left index finger, if:

Press the M key with your right index finger, if:


Labels in the lower-left and lower-right of the screen will remind you
which hand to use for which SHAPE. Ignore the color words for now.","






The word SHAPE will be presented before each image to remind you what to do.",face3M1_Sc.xlsx,,images/3M1_Sc_OS.jpg,images/3M1_Sc_BS.jpg,0,0,0,1,3,1,1,1,0,0,0,1,0,4,4,5,,,,,0,0,0,14,,,,,,,,,,,,,,,,,,,,,,,,,,,,,,,,,,,,,,,,,,,,,,,,,,,,,,,,,,,,,,,,,,,,,,,,,,,,,,,,,,,,,,1.095190380761523,z,56.579831700073555,None,56.579831700073555,None,57.67205750010908,58.6789698000066,57.67205750010908,58.6789698000066,57.67205750010908,58.6789698000066,57.67205750010908,58.6789698000066,57.67205750010908,58.6789698000066,None,0,57.67205750010908,59.17257219995372,,,001,2022_Jan_27_1913,multiEF-Inhib,2021.2.3,240.6211881314866,
shape.xlsx,1,1,SHAPE Game Practice,"



In this game, you have to focus on the SHAPE of the center image

Press the Z key with your left index finger, if:

Press the M key with your right index finger, if:


Labels in the lower-left and lower-right of the screen will remind you
which hand to use for which SHAPE. Ignore the color words for now.","






The word SHAPE will be presented before each image to remind you what to do.",face3M1_Sc.xlsx,,,,,,,,,,,,0,0,0,1,0,4,4,5,,,,,,,,,,,,,,,,,,,,,,,,,,,,,,,,,,,,,,,,,,,,,,,,,,,,,,,,,,,,,,,,,,,,,,,,,,,,,,,,,,,,,,,,,,,,,,,,,,,,,,,,,,,,,,,,,,,,001,2022_Jan_27_1913,multiEF-Inhib,2021.2.3,240.6211881314866,
shape.xlsx,1,1,SHAPE Game Practice,"



In this game, you have to focus on the SHAPE of the center image

Press the Z key with your left index finger, if:

Press the M key with your right index finger, if:


Labels in the lower-left and lower-right of the screen will remind you
which hand to use for which SHAPE. Ignore the color words for now.","






The word SHAPE will be presented before each image to remind you what to do.",face4F1_Fa.xlsx,SHAPE,,,,,,,,,,,0,0,0,1,0,5,5,6,0,0,0,0,,,,,,,,,,,,,,,,,,,,,,,,,,,,,,,,,,,,,,,,,,,,,,,,,,,,,,,,,,,,,,,,,,,,,,,,,,,,,,,,,,,1.1042084168336674,59.19459530012682,None,59.19459530012682,None,60.29258710006252,61.29351490014233,,,,,,,,,,,,,,,,,,,,,,,001,2022_Jan_27_1913,multiEF-Inhib,2021.2.3,240.6211881314866,
shape.xlsx,1,1,SHAPE Game Practice,"



In this game, you have to focus on the SHAPE of the center image

Press the Z key with your left index finger, if:

Press the M key with your right index finger, if:


Labels in the lower-left and lower-right of the screen will remind you
which hand to use for which SHAPE. Ignore the color words for now.","






The word SHAPE will be presented before each image to remind you what to do.",face4F1_Fa.xlsx,,images/4F1_Fa_OS.jpg,images/4F1_Fa_BS.jpg,0,0,0,1,4,0,1,0,0,0,0,1,0,5,5,6,,,,,0,0,0,14,,,,,,,,,,,,,,,,,,,,,,,,,,,,,,,,,,,,,,,,,,,,,,,,,,,,,,,,,,,,,,,,,,,,,,,,,,,,,,,,,,,,,,1.4969939879759517,z,61.35982779995538,None,61.35982779995538,None,62.85357369994745,63.858177199959755,62.85357369994745,63.858177199959755,62.85357369994745,63.858177199959755,62.85357369994745,63.858177199959755,62.85357369994745,63.858177199959755,None,0,62.85357369994745,None,,,001,2022_Jan_27_1913,multiEF-Inhib,2021.2.3,240.6211881314866,
shape.xlsx,1,1,SHAPE Game Practice,"



In this game, you have to focus on the SHAPE of the center image

Press the Z key with your left index finger, if:

Press the M key with your right index finger, if:


Labels in the lower-left and lower-right of the screen will remind you
which hand to use for which SHAPE. Ignore the color words for now.","






The word SHAPE will be presented before each image to remind you what to do.",face4F1_Fa.xlsx,,,,,,,,,,,,0,0,0,1,0,5,5,6,,,,,,,,,,,,,,,,,,,,,,,,,,,,,,,,,,,,,,,,,,,,,,,,,,,,,,,,,,,,,,,,,,,,,,,,,,,,,,,,,,,,,,,,,,,,,,,,,,,,,,,,,,,,,,,,,,,,001,2022_Jan_27_1913,multiEF-Inhib,2021.2.3,240.6211881314866,
shape.xlsx,1,1,SHAPE Game Practice,"



In this game, you have to focus on the SHAPE of the center image

Press the Z key with your left index finger, if:

Press the M key with your right index finger, if:


Labels in the lower-left and lower-right of the screen will remind you
which hand to use for which SHAPE. Ignore the color words for now.","






The word SHAPE will be presented before each image to remind you what to do.",face1F1_Sc.xlsx,SHAPE,,,,,,,,,,,0,0,0,1,0,6,6,1,0,0,0,0,,,,,,,,,,,,,,,,,,,,,,,,,,,,,,,,,,,,,,,,,,,,,,,,,,,,,,,,,,,,,,,,,,,,,,,,,,,,,,,,,,,1.4809619238476952,64.376093900064,None,64.376093900064,None,65.84853980015032,66.85113140009344,,,,,,,,,,,,,,,,,,,,,,,001,2022_Jan_27_1913,multiEF-Inhib,2021.2.3,240.6211881314866,
shape.xlsx,1,1,SHAPE Game Practice,"



In this game, you have to focus on the SHAPE of the center image

Press the Z key with your left index finger, if:

Press the M key with your right index finger, if:


Labels in the lower-left and lower-right of the screen will remind you
which hand to use for which SHAPE. Ignore the color words for now.","






The word SHAPE will be presented before each image to remind you what to do.",face1F1_Sc.xlsx,,images/1F1_Sc_OS.jpg,images/1F1_Sc_OS.jpg,0,0,0,0,1,0,1,1,0,0,0,1,0,6,6,1,,,,,0,0,0,15,,,,,,,,,,,,,,,,,,,,,,,,,,,,,,,,,,,,,,,,,,,,,,,,,,,,,,,,,,,,,,,,,,,,,,,,,,,,,,,,,,,,,,1.3026052104208417,z,66.9246805999428,None,66.9246805999428,None,68.22556610009633,69.23433130001649,68.22556610009633,69.23433130001649,68.22556610009633,69.23433130001649,68.22556610009633,69.23433130001649,68.22556610009633,69.23433130001649,None,0,68.22556610009633,69.72686629998498,,,001,2022_Jan_27_1913,multiEF-Inhib,2021.2.3,240.6211881314866,
shape.xlsx,1,1,SHAPE Game Practice,"



In this game, you have to focus on the SHAPE of the center image

Press the Z key with your left index finger, if:

Press the M key with your right index finger, if:


Labels in the lower-left and lower-right of the screen will remind you
which hand to use for which SHAPE. Ignore the color words for now.","






The word SHAPE will be presented before each image to remind you what to do.",face1F1_Sc.xlsx,,,,,,,,,,,,0,0,0,1,0,6,6,1,,,,,,,,,,,,,,,,,,,,,,,,,,,,,,,,,,,,,,,,,,,,,,,,,,,,,,,,,,,,,,,,,,,,,,,,,,,,,,,,,,,,,,,,,,,,,,,,,,,,,,,,,,,,,,,,,,,,001,2022_Jan_27_1913,multiEF-Inhib,2021.2.3,240.6211881314866,
shape.xlsx,1,1,SHAPE Game Practice,"



In this game, you have to focus on the SHAPE of the center image

Press the Z key with your left index finger, if:

Press the M key with your right index finger, if:


Labels in the lower-left and lower-right of the screen will remind you
which hand to use for which SHAPE. Ignore the color words for now.","






The word SHAPE will be presented before each image to remind you what to do.",face1F1_Fa.xlsx,SHAPE,,,,,,,,,,,0,0,0,1,0,7,7,0,0,0,0,0,,,,,,,,,,,,,,,,,,,,,,,,,,,,,,,,,,,,,,,,,,,,,,,,,,,,,,,,,,,,,,,,,,,,,,,,,,,,,,,,,,,1.4879759519038076,69.74983440013602,None,69.74983440013602,None,71.23219170002267,72.2373214000836,,,,,,,,,,,,,,,,,,,,,,,001,2022_Jan_27_1913,multiEF-Inhib,2021.2.3,240.6211881314866,
shape.xlsx,1,1,SHAPE Game Practice,"



In this game, you have to focus on the SHAPE of the center image

Press the Z key with your left index finger, if:

Press the M key with your right index finger, if:


Labels in the lower-left and lower-right of the screen will remind you
which hand to use for which SHAPE. Ignore the color words for now.","






The word SHAPE will be presented before each image to remind you what to do.",face1F1_Fa.xlsx,,images/1F1_Fa_BD.jpg,images/1F1_Fa_OD.jpg,45,45,1,0,1,0,1,0,0,0,0,1,0,7,7,0,,,,,0,0,0,1,,,,,,,,,,,,,,,,,,,,,,,,,,,,,,,,,,,,,,,,,,,,,,,,,,,,,,,,,,,,,,,,,,,,,,,,,,,,,,,,,,,,,,1.059118236472946,z,72.29801130015403,None,72.29801130015403,None,73.3523273000028,74.36128850001842,73.3523273000028,74.36128850001842,73.3523273000028,74.36128850001842,73.3523273000028,74.36128850001842,73.3523273000028,74.36128850001842,None,0,73.3523273000028,74.85621430003084,,,001,2022_Jan_27_1913,multiEF-Inhib,2021.2.3,240.6211881314866,
shape.xlsx,1,1,SHAPE Game Practice,"



In this game, you have to focus on the SHAPE of the center image

Press the Z key with your left index finger, if:

Press the M key with your right index finger, if:


Labels in the lower-left and lower-right of the screen will remind you
which hand to use for which SHAPE. Ignore the color words for now.","






The word SHAPE will be presented before each image to remind you what to do.",face1F1_Fa.xlsx,,,,,,,,,,,,0,0,0,1,0,7,7,0,,,,,,,,,,,,,,,,,,,,,,,,,,,,,,,,,,,,,,,,,,,,,,,,,,,,,,,,,,,,,,,,,,,,,,,,,,,,,,,,,,,,,,,,,,,,,,,,,,,,,,,,,,,,,,,,,,,,001,2022_Jan_27_1913,multiEF-Inhib,2021.2.3,240.6211881314866,
shape.xlsx,1,1,SHAPE Game Practice,"



In this game, you have to focus on the SHAPE of the center image

Press the Z key with your left index finger, if:

Press the M key with your right index finger, if:


Labels in the lower-left and lower-right of the screen will remind you
which hand to use for which SHAPE. Ignore the color words for now.","






The word SHAPE will be presented before each image to remind you what to do.",,,,,,,,,,,,,0,0,0,1,,,,,,,,,,,,,,,,,,,,,,,,,,,,,,,,,,,,,,,,,,,,,,,,,,,,,,,,,,,,,,,,,,,,,,,,,,,,,,,,,,,,,,,,,,,,,,,,,,,,,,,,,,,,,,,,,,,,,,,,001,2022_Jan_27_1913,multiEF-Inhib,2021.2.3,240.6211881314866,
