middleStim,rightStim1,rightStim2,leftStim1,leftStim2,stimNum,congruent,target,whichCondition,conditionText,prac_block_loop.thisRepN,prac_block_loop.thisTrialN,prac_block_loop.thisN,prac_block_loop.thisIndex,prac_trial_loop.thisRepN,prac_trial_loop.thisTrialN,prac_trial_loop.thisN,prac_trial_loop.thisIndex,task_condition_loop.thisRepN,task_condition_loop.thisTrialN,task_condition_loop.thisN,task_condition_loop.thisIndex,task_block_loop.thisRepN,task_block_loop.thisTrialN,task_block_loop.thisN,task_block_loop.thisIndex,task_trial_loop.thisRepN,task_trial_loop.thisTrialN,task_trial_loop.thisN,task_trial_loop.thisIndex,prac_blockText.started,prac_blockText.stopped,prac_reminder_text.started,prac_reminder_text.stopped,prac_reminder_keyResp.keys,prac_reminder_keyResp.rt,prac_reminder_keyResp.started,prac_reminder_keyResp.stopped,initFixation_img.started,initFixation_img.stopped,ISI,prac_centerImg.started,prac_centerImg.stopped,prac_rightImg1.started,prac_rightImg1.stopped,prac_rightImg2.started,prac_rightImg2.stopped,prac_leftImg1.started,prac_leftImg1.stopped,prac_leftImg2.started,prac_leftImg2.stopped,prac_fixImg.started,prac_fixImg.stopped,prac_stim_keyResp.keys,prac_stim_keyResp.started,prac_stim_keyResp.stopped,accuracy,prac_stim_keyResp.rt,prac_blockFeed_text.started,prac_blockFeed_text.stopped,prac_pressContinue.started,prac_pressContinue.stopped,prac_blockFeed_keyResp.keys,prac_blockFeed_keyResp.rt,prac_blockFeed_keyResp.started,prac_blockFeed_keyResp.stopped,instructMainTask_keyResp.keys,instructMainTask_keyResp.rt,condition_keyResp.keys,condition_keyResp.rt,task_blockText.started,task_blockText.stopped,task_blockReminders_keyResp.keys,task_blockReminders_keyResp.rt,task_blockReminders_keyResp.started,task_blockReminders_keyResp.stopped,task_centerImg.started,task_centerImg.stopped,task_rightImg1.started,task_rightImg1.stopped,task_rightImg2.started,task_rightImg2.stopped,task_leftImg1.started,task_leftImg1.stopped,task_leftImg2.started,task_leftImg2.stopped,task_fixImg.started,task_fixImg.stopped,task_stim_keyResp.keys,task_stim_keyResp.rt,task_stim_keyResp.started,task_stim_keyResp.stopped,blockFeedCat,task_blockFeed_text.started,task_blockFeed_text.stopped,task_blockFeed_keyResp.keys,task_blockFeed_keyResp.rt,task_blockFeed_keyResp.started,task_blockFeed_keyResp.stopped,conditionComplete_key_resp.keys,conditionComplete_key_resp.rt,id,counterbalance,session,run,date,expName,psychopyVersion,frameRate,
img/rightArrow.png,img/rightArrow.png,img/rightArrow.png,img/rightArrow.png,img/rightArrow.png,1,1,right,,,0,0,0,0,0,0,0,0,,,,,,,,,,,,,76.996736000292,None,76.996736000292,None,8,17.20947550004348,76.996736000292,None,94.23182080034167,None,1.9899799599198396,97.29242390021682,97.49584900029004,97.29242390021682,97.49584900029004,97.29242390021682,97.49584900029004,97.29242390021682,97.49584900029004,97.29242390021682,97.49584900029004,97.29242390021682,None,None,97.29242390021682,None,0,,,,,,,,,,,,,,,,,,,,,,,,,,,,,,,,,,,,,,,,,,,,,16004,A,1,1,2022_May_12_1402,flanker-basic_v5,2021.2.3,240.37825919862127,
img/leftArrow.png,img/leftArrow.png,img/leftArrow.png,img/leftArrow.png,img/leftArrow.png,2,1,left,,,0,0,0,0,0,1,1,1,,,,,,,,,,,,,,,,,,,,,,,1.5230460921843687,99.33013960020617,99.52997749997303,99.33013960020617,99.52997749997303,99.33013960020617,99.52997749997303,99.33013960020617,99.52997749997303,99.33013960020617,99.52997749997303,99.33013960020617,99.33013960020617,['8'],99.33013960020617,99.33013960020617,0,[0.06123190000653267],,,,,,,,,,,,,,,,,,,,,,,,,,,,,,,,,,,,,,,,,,,,16004,A,1,1,2022_May_12_1402,flanker-basic_v5,2021.2.3,240.37825919862127,
img/rightArrow.png,img/leftArrow.png,img/leftArrow.png,img/leftArrow.png,img/leftArrow.png,3,0,right,,,0,0,0,0,0,2,2,2,,,,,,,,,,,,,,,,,,,,,,,1.6973947895791581,100.89982439996675,101.0996503001079,100.89982439996675,101.0996503001079,100.89982439996675,101.0996503001079,100.89982439996675,101.0996503001079,100.89982439996675,101.0996503001079,100.89982439996675,100.89982439996675,None,100.89982439996675,100.89982439996675,0,,,,,,,,,,,,,,,,,,,,,,,,,,,,,,,,,,,,,,,,,,,,,16004,A,1,1,2022_May_12_1402,flanker-basic_v5,2021.2.3,240.37825919862127,
img/leftArrow.png,img/rightArrow.png,img/rightArrow.png,img/rightArrow.png,img/rightArrow.png,4,0,left,,,0,0,0,0,0,3,3,3,,,,,,,,,,,,,,,,,,,,,,,1.6332665330661322,102.65042700013146,102.85240360023454,102.65042700013146,102.85240360023454,102.65042700013146,102.85240360023454,102.65042700013146,102.85240360023454,102.65042700013146,102.85240360023454,102.65042700013146,102.65042700013146,['1'],102.65042700013146,102.65042700013146,1,[0.7136959997005761],,,,,,,,,,,,,,,,,,,,,,,,,,,,,,,,,,,,,,,,,,,,16004,A,1,1,2022_May_12_1402,flanker-basic_v5,2021.2.3,240.37825919862127,
img/rightArrow.png,img/leftArrow.png,img/leftArrow.png,img/leftArrow.png,img/leftArrow.png,3,0,right,,,0,0,0,0,1,0,4,2,,,,,,,,,,,,,,,,,,,,,,,1.68937875751503,104.32882940024137,104.53290580026805,104.32882940024137,104.53290580026805,104.32882940024137,104.53290580026805,104.32882940024137,104.53290580026805,104.32882940024137,104.53290580026805,104.32882940024137,104.32882940024137,['8'],104.32882940024137,104.32882940024137,1,[0.48046480026096106],,,,,,,,,,,,,,,,,,,,,,,,,,,,,,,,,,,,,,,,,,,,16004,A,1,1,2022_May_12_1402,flanker-basic_v5,2021.2.3,240.37825919862127,
img/leftArrow.png,img/leftArrow.png,img/leftArrow.png,img/leftArrow.png,img/leftArrow.png,2,1,left,,,0,0,0,0,1,1,5,1,,,,,,,,,,,,,,,,,,,,,,,1.5110220440881763,106.06356250029057,106.263299100101,106.06356250029057,106.263299100101,106.06356250029057,106.263299100101,106.06356250029057,106.263299100101,106.06356250029057,106.263299100101,106.06356250029057,106.06356250029057,['1'],106.06356250029057,106.06356250029057,1,[0.3686167001724243],,,,,,,,,,,,,,,,,,,,,,,,,,,,,,,,,,,,,,,,,,,,16004,A,1,1,2022_May_12_1402,flanker-basic_v5,2021.2.3,240.37825919862127,
img/leftArrow.png,img/rightArrow.png,img/rightArrow.png,img/rightArrow.png,img/rightArrow.png,4,0,left,,,0,0,0,0,1,2,6,3,,,,,,,,,,,,,,,,,,,,,,,1.8617234468937875,107.61378600029275,107.81390330009162,107.61378600029275,107.81390330009162,107.61378600029275,107.81390330009162,107.61378600029275,107.81390330009162,107.61378600029275,107.81390330009162,107.61378600029275,107.61378600029275,['1'],107.61378600029275,107.61378600029275,1,[0.5114078996703029],,,,,,,,,,,,,,,,,,,,,,,,,,,,,,,,,,,,,,,,,,,,16004,A,1,1,2022_May_12_1402,flanker-basic_v5,2021.2.3,240.37825919862127,
img/rightArrow.png,img/rightArrow.png,img/rightArrow.png,img/rightArrow.png,img/rightArrow.png,1,1,right,,,0,0,0,0,1,3,7,0,,,,,,,,,,,,,,,,,,,,,,,1.8266533066132264,109.52565690036863,109.72698889998719,109.52565690036863,109.72698889998719,109.52565690036863,109.72698889998719,109.52565690036863,109.72698889998719,109.52565690036863,109.72698889998719,109.52565690036863,109.52565690036863,['1'],109.52565690036863,109.52565690036863,0,[0.39133309992030263],,,,,,,,,,,,,,,,,,,,,,,,,,,,,,,,,,,,,,,,,,,,16004,A,1,1,2022_May_12_1402,flanker-basic_v5,2021.2.3,240.37825919862127,
img/rightArrow.png,img/rightArrow.png,img/rightArrow.png,img/rightArrow.png,img/rightArrow.png,1,1,right,,,0,0,0,0,2,0,8,0,,,,,,,,,,,,,,,,,,,,,,,1.6733466933867736,111.3994102999568,111.60269069997594,111.3994102999568,111.60269069997594,111.3994102999568,111.60269069997594,111.3994102999568,111.60269069997594,111.3994102999568,111.60269069997594,111.3994102999568,111.3994102999568,['8'],111.3994102999568,111.3994102999568,1,[0.5470280000008643],,,,,,,,,,,,,,,,,,,,,,,,,,,,,,,,,,,,,,,,,,,,16004,A,1,1,2022_May_12_1402,flanker-basic_v5,2021.2.3,240.37825919862127,
img/leftArrow.png,img/leftArrow.png,img/leftArrow.png,img/leftArrow.png,img/leftArrow.png,2,1,left,,,0,0,0,0,2,1,9,1,,,,,,,,,,,,,,,,,,,,,,,1.5070140280561122,113.11830600025132,113.31930050021037,113.11830600025132,113.31930050021037,113.11830600025132,113.31930050021037,113.11830600025132,113.31930050021037,113.11830600025132,113.31930050021037,113.11830600025132,113.11830600025132,['1'],113.11830600025132,113.11830600025132,1,[0.44704219978302717],,,,,,,,,,,,,,,,,,,,,,,,,,,,,,,,,,,,,,,,,,,,16004,A,1,1,2022_May_12_1402,flanker-basic_v5,2021.2.3,240.37825919862127,
img/rightArrow.png,img/leftArrow.png,img/leftArrow.png,img/leftArrow.png,img/leftArrow.png,3,0,right,,,0,0,0,0,2,2,10,2,,,,,,,,,,,,,,,,,,,,,,,1.5851703406813626,114.6649120002985,114.86516530020162,114.6649120002985,114.86516530020162,114.6649120002985,114.86516530020162,114.6649120002985,114.86516530020162,114.6649120002985,114.86516530020162,114.6649120002985,114.6649120002985,['8'],114.6649120002985,114.6649120002985,1,[0.9634858001954854],,,,,,,,,,,,,,,,,,,,,,,,,,,,,,,,,,,,,,,,,,,,16004,A,1,1,2022_May_12_1402,flanker-basic_v5,2021.2.3,240.37825919862127,
img/leftArrow.png,img/rightArrow.png,img/rightArrow.png,img/rightArrow.png,img/rightArrow.png,4,0,left,,,0,0,0,0,2,3,11,3,,,,,,,,,,,,,,,,,,,,,,,1.7444889779559118,116.30449869995937,116.50479220040143,116.30449869995937,116.50479220040143,116.30449869995937,116.50479220040143,116.30449869995937,116.50479220040143,116.30449869995937,116.50479220040143,116.30449869995937,116.30449869995937,['1'],116.30449869995937,116.30449869995937,1,[0.5437594000250101],,,,,,,,,,,,,,,,,,,,,,,,,,,,,,,,,,,,,,,,,,,,16004,A,1,1,2022_May_12_1402,flanker-basic_v5,2021.2.3,240.37825919862127,
img/rightArrow.png,img/rightArrow.png,img/rightArrow.png,img/rightArrow.png,img/rightArrow.png,1,1,right,,,0,0,0,0,3,0,12,0,,,,,,,,,,,,,,,,,,,,,,,1.7925851703406812,118.09263910027221,118.29452700028196,118.09263910027221,118.29452700028196,118.09263910027221,118.29452700028196,118.09263910027221,118.29452700028196,118.09263910027221,118.29452700028196,118.09263910027221,118.09263910027221,['8'],118.09263910027221,118.09263910027221,1,[0.6255184998735785],,,,,,,,,,,,,,,,,,,,,,,,,,,,,,,,,,,,,,,,,,,,16004,A,1,1,2022_May_12_1402,flanker-basic_v5,2021.2.3,240.37825919862127,
img/rightArrow.png,img/leftArrow.png,img/leftArrow.png,img/leftArrow.png,img/leftArrow.png,3,0,right,,,0,0,0,0,3,1,13,2,,,,,,,,,,,,,,,,,,,,,,,1.7575150300601203,119.93004030035809,120.13248579995707,119.93004030035809,120.13248579995707,119.93004030035809,120.13248579995707,119.93004030035809,120.13248579995707,119.93004030035809,120.13248579995707,119.93004030035809,119.93004030035809,['8'],119.93004030035809,119.93004030035809,1,[0.6140713002532721],,,,,,,,,,,,,,,,,,,,,,,,,,,,,,,,,,,,,,,,,,,,16004,A,1,1,2022_May_12_1402,flanker-basic_v5,2021.2.3,240.37825919862127,
img/leftArrow.png,img/leftArrow.png,img/leftArrow.png,img/leftArrow.png,img/leftArrow.png,2,1,left,,,0,0,0,0,3,2,14,1,,,,,,,,,,,,,,,,,,,,,,,1.5551102204408818,121.73166620032862,121.9320829003118,121.73166620032862,121.9320829003118,121.73166620032862,121.9320829003118,121.73166620032862,121.9320829003118,121.73166620032862,121.9320829003118,121.73166620032862,121.73166620032862,['1'],121.73166620032862,121.73166620032862,1,[0.4275898998603225],,,,,,,,,,,,,,,,,,,,,,,,,,,,,,,,,,,,,,,,,,,,16004,A,1,1,2022_May_12_1402,flanker-basic_v5,2021.2.3,240.37825919862127,
img/leftArrow.png,img/rightArrow.png,img/rightArrow.png,img/rightArrow.png,img/rightArrow.png,4,0,left,,,0,0,0,0,3,3,15,3,,,,,,,,,,,,,,,,,,,,,,,1.657314629258517,123.33593669999391,123.53835050016642,123.33593669999391,123.53835050016642,123.33593669999391,123.53835050016642,123.33593669999391,123.53835050016642,123.33593669999391,123.53835050016642,123.33593669999391,123.33593669999391,['1'],123.33593669999391,123.33593669999391,1,[0.5051979003474116],,,,,,,,,,,,,,,,,,,,,,,,,,,,,,,,,,,,,,,,,,,,16004,A,1,1,2022_May_12_1402,flanker-basic_v5,2021.2.3,240.37825919862127,
img/rightArrow.png,img/rightArrow.png,img/rightArrow.png,img/rightArrow.png,img/rightArrow.png,1,1,right,,,0,0,0,0,4,0,16,0,,,,,,,,,,,,,,,,,,,,,,,1.997995991983968,125.04102380014956,125.24069650005549,125.04102380014956,125.24069650005549,125.04102380014956,125.24069650005549,125.04102380014956,125.24069650005549,125.04102380014956,125.24069650005549,125.04102380014956,125.04102380014956,['8'],125.04102380014956,125.04102380014956,1,[0.427148699760437],,,,,,,,,,,,,,,,,,,,,,,,,,,,,,,,,,,,,,,,,,,,16004,A,1,1,2022_May_12_1402,flanker-basic_v5,2021.2.3,240.37825919862127,
img/rightArrow.png,img/leftArrow.png,img/leftArrow.png,img/leftArrow.png,img/leftArrow.png,3,0,right,,,0,0,0,0,4,1,17,2,,,,,,,,,,,,,,,,,,,,,,,1.617234468937876,127.08736200025305,127.28804160002619,127.08736200025305,127.28804160002619,127.08736200025305,127.28804160002619,127.08736200025305,127.28804160002619,127.08736200025305,127.28804160002619,127.08736200025305,127.08736200025305,['8'],127.08736200025305,127.08736200025305,1,[0.7020158995874226],,,,,,,,,,,,,,,,,,,,,,,,,,,,,,,,,,,,,,,,,,,,16004,A,1,1,2022_May_12_1402,flanker-basic_v5,2021.2.3,240.37825919862127,
img/leftArrow.png,img/leftArrow.png,img/leftArrow.png,img/leftArrow.png,img/leftArrow.png,2,1,left,,,0,0,0,0,4,2,18,1,,,,,,,,,,,,,,,,,,,,,,,1.8066132264529058,128.753555000294,128.95562440017238,128.753555000294,128.95562440017238,128.753555000294,128.95562440017238,128.753555000294,128.95562440017238,128.753555000294,128.95562440017238,128.753555000294,128.753555000294,['1'],128.753555000294,128.753555000294,1,[0.41073370026424527],,,,,,,,,,,,,,,,,,,,,,,,,,,,,,,,,,,,,,,,,,,,16004,A,1,1,2022_May_12_1402,flanker-basic_v5,2021.2.3,240.37825919862127,
img/leftArrow.png,img/rightArrow.png,img/rightArrow.png,img/rightArrow.png,img/rightArrow.png,4,0,left,,,0,0,0,0,4,3,19,3,,,,,,,,,,,,,,,,,,,,,,,1.9639278557114228,130.59925119997934,130.80169230001047,130.59925119997934,130.80169230001047,130.59925119997934,130.80169230001047,130.59925119997934,130.80169230001047,130.59925119997934,130.80169230001047,130.59925119997934,130.59925119997934,['1'],130.59925119997934,130.59925119997934,1,[0.6839242996647954],,,,,,,,,,,,,,,,,,,,,,,,,,,,,,,,,,,,,,,,,,,,16004,A,1,1,2022_May_12_1402,flanker-basic_v5,2021.2.3,240.37825919862127,
img/rightArrow.png,img/rightArrow.png,img/rightArrow.png,img/rightArrow.png,img/rightArrow.png,1,1,right,,,0,0,0,0,5,0,20,0,,,,,,,,,,,,,,,,,,,,,,,1.9819639278557113,132.6137990001589,132.81678700027987,132.6137990001589,132.81678700027987,132.6137990001589,132.81678700027987,132.6137990001589,132.81678700027987,132.6137990001589,132.81678700027987,132.6137990001589,132.6137990001589,['8'],132.6137990001589,132.6137990001589,1,[0.4244149001315236],,,,,,,,,,,,,,,,,,,,,,,,,,,,,,,,,,,,,,,,,,,,16004,A,1,1,2022_May_12_1402,flanker-basic_v5,2021.2.3,240.37825919862127,
img/rightArrow.png,img/leftArrow.png,img/leftArrow.png,img/leftArrow.png,img/leftArrow.png,3,0,right,,,0,0,0,0,5,1,21,2,,,,,,,,,,,,,,,,,,,,,,,1.7705410821643286,134.66284620016813,134.86402580002323,134.66284620016813,134.86402580002323,134.66284620016813,134.86402580002323,134.66284620016813,134.86402580002323,134.66284620016813,134.86402580002323,134.66284620016813,134.66284620016813,['8'],134.66284620016813,134.66284620016813,1,[0.43862950010225177],,,,,,,,,,,,,,,,,,,,,,,,,,,,,,,,,,,,,,,,,,,,16004,A,1,1,2022_May_12_1402,flanker-basic_v5,2021.2.3,240.37825919862127,
img/leftArrow.png,img/leftArrow.png,img/leftArrow.png,img/leftArrow.png,img/leftArrow.png,2,1,left,,,0,0,0,0,5,2,22,1,,,,,,,,,,,,,,,,,,,,,,,1.9258517034068137,136.48457169998437,136.68611300038174,136.48457169998437,136.68611300038174,136.48457169998437,136.68611300038174,136.48457169998437,136.68611300038174,136.48457169998437,136.68611300038174,136.48457169998437,136.48457169998437,['1'],136.48457169998437,136.48457169998437,1,[0.30977819999679923],,,,,,,,,,,,,,,,,,,,,,,,,,,,,,,,,,,,,,,,,,,,16004,A,1,1,2022_May_12_1402,flanker-basic_v5,2021.2.3,240.37825919862127,
img/leftArrow.png,img/rightArrow.png,img/rightArrow.png,img/rightArrow.png,img/rightArrow.png,4,0,left,,,0,0,0,0,5,3,23,3,,,,,,,,,,,,,,,,,,,,,,,1.535070140280561,138.4609479000792,138.6655614003539,138.4609479000792,138.6655614003539,138.4609479000792,138.6655614003539,138.4609479000792,138.6655614003539,138.4609479000792,138.6655614003539,138.4609479000792,138.4609479000792,['1'],138.4609479000792,138.4609479000792,1,[0.6894233003258705],,,,,,,,,,,,,,,,,,,,,,,,,,,,,,,,,,,,,,,,,,,,16004,A,1,1,2022_May_12_1402,flanker-basic_v5,2021.2.3,240.37825919862127,
img/leftArrow.png,img/leftArrow.png,img/leftArrow.png,img/leftArrow.png,img/leftArrow.png,2,1,left,,,0,0,0,0,6,0,24,1,,,,,,,,,,,,,,,,,,,,,,,1.8967935871743486,140.04027710016817,140.24155140016228,140.04027710016817,140.24155140016228,140.04027710016817,140.24155140016228,140.04027710016817,140.24155140016228,140.04027710016817,140.24155140016228,140.04027710016817,140.04027710016817,['1'],140.04027710016817,140.04027710016817,1,[0.48804369987919927],,,,,,,,,,,,,,,,,,,,,,,,,,,,,,,,,,,,,,,,,,,,16004,A,1,1,2022_May_12_1402,flanker-basic_v5,2021.2.3,240.37825919862127,
img/rightArrow.png,img/leftArrow.png,img/leftArrow.png,img/leftArrow.png,img/leftArrow.png,3,0,right,,,0,0,0,0,6,1,25,2,,,,,,,,,,,,,,,,,,,,,,,1.8236472945891782,141.98206890001893,142.1819776003249,141.98206890001893,142.1819776003249,141.98206890001893,142.1819776003249,141.98206890001893,142.1819776003249,141.98206890001893,142.1819776003249,141.98206890001893,141.98206890001893,['8'],141.98206890001893,141.98206890001893,1,[0.5102658998221159],,,,,,,,,,,,,,,,,,,,,,,,,,,,,,,,,,,,,,,,,,,,16004,A,1,1,2022_May_12_1402,flanker-basic_v5,2021.2.3,240.37825919862127,
img/rightArrow.png,img/rightArrow.png,img/rightArrow.png,img/rightArrow.png,img/rightArrow.png,1,1,right,,,0,0,0,0,6,2,26,0,,,,,,,,,,,,,,,,,,,,,,,1.7985971943887775,143.85191420000046,144.05244180001318,143.85191420000046,144.05244180001318,143.85191420000046,144.05244180001318,143.85191420000046,144.05244180001318,143.85191420000046,144.05244180001318,143.85191420000046,143.85191420000046,['8'],143.85191420000046,143.85191420000046,1,[0.6733901998959482],,,,,,,,,,,,,,,,,,,,,,,,,,,,,,,,,,,,,,,,,,,,16004,A,1,1,2022_May_12_1402,flanker-basic_v5,2021.2.3,240.37825919862127,
img/leftArrow.png,img/rightArrow.png,img/rightArrow.png,img/rightArrow.png,img/rightArrow.png,4,0,left,,,0,0,0,0,6,3,27,3,,,,,,,,,,,,,,,,,,,,,,,1.87374749498998,145.709004400298,145.91137550026178,145.709004400298,145.91137550026178,145.709004400298,145.91137550026178,145.709004400298,145.91137550026178,145.709004400298,145.91137550026178,145.709004400298,145.709004400298,['1'],145.709004400298,145.709004400298,1,[0.5323943002149463],,,,,,,,,,,,,,,,,,,,,,,,,,,,,,,,,,,,,,,,,,,,16004,A,1,1,2022_May_12_1402,flanker-basic_v5,2021.2.3,240.37825919862127,
img/leftArrow.png,img/rightArrow.png,img/rightArrow.png,img/rightArrow.png,img/rightArrow.png,4,0,left,,,0,0,0,0,7,0,28,3,,,,,,,,,,,,,,,,,,,,,,,1.8096192384769538,147.64027200033888,147.84436060022563,147.64027200033888,147.84436060022563,147.64027200033888,147.84436060022563,147.64027200033888,147.84436060022563,147.64027200033888,147.84436060022563,147.64027200033888,147.64027200033888,['1'],147.64027200033888,147.64027200033888,1,[0.5307819000445306],,,,,,,,,,,,,,,,,,,,,,,,,,,,,,,,,,,,,,,,,,,,16004,A,1,1,2022_May_12_1402,flanker-basic_v5,2021.2.3,240.37825919862127,
img/leftArrow.png,img/leftArrow.png,img/leftArrow.png,img/leftArrow.png,img/leftArrow.png,2,1,left,,,0,0,0,0,7,1,29,1,,,,,,,,,,,,,,,,,,,,,,,1.842685370741483,149.49594600033015,149.7004496003501,149.49594600033015,149.7004496003501,149.49594600033015,149.7004496003501,149.49594600033015,149.7004496003501,149.49594600033015,149.7004496003501,149.49594600033015,149.49594600033015,['1'],149.49594600033015,149.49594600033015,1,[0.3451991002075374],,,,,,,,,,,,,,,,,,,,,,,,,,,,,,,,,,,,,,,,,,,,16004,A,1,1,2022_May_12_1402,flanker-basic_v5,2021.2.3,240.37825919862127,
img/rightArrow.png,img/leftArrow.png,img/leftArrow.png,img/leftArrow.png,img/leftArrow.png,3,0,right,,,0,0,0,0,7,2,30,2,,,,,,,,,,,,,,,,,,,,,,,1.5,151.3869251003489,151.59118500025943,151.3869251003489,151.59118500025943,151.3869251003489,151.59118500025943,151.3869251003489,151.59118500025943,151.3869251003489,151.59118500025943,151.3869251003489,151.3869251003489,['8'],151.3869251003489,151.3869251003489,1,[0.3842268995940685],,,,,,,,,,,,,,,,,,,,,,,,,,,,,,,,,,,,,,,,,,,,16004,A,1,1,2022_May_12_1402,flanker-basic_v5,2021.2.3,240.37825919862127,
img/rightArrow.png,img/rightArrow.png,img/rightArrow.png,img/rightArrow.png,img/rightArrow.png,1,1,right,,,0,0,0,0,7,3,31,0,,,,,,,,,,,,,,,,,,,,,,,1.5040080160320641,152.93690120009705,153.1403920003213,152.93690120009705,153.1403920003213,152.93690120009705,153.1403920003213,152.93690120009705,153.1403920003213,152.93690120009705,153.1403920003213,152.93690120009705,152.93690120009705,['8'],152.93690120009705,152.93690120009705,1,[0.4311776999384165],,,,,,,,,,,,,,,,,,,,,,,,,,,,,,,,,,,,,,,,,,,,16004,A,1,1,2022_May_12_1402,flanker-basic_v5,2021.2.3,240.37825919862127,
img/leftArrow.png,img/leftArrow.png,img/leftArrow.png,img/leftArrow.png,img/leftArrow.png,2,1,left,,,0,0,0,0,8,0,32,1,,,,,,,,,,,,,,,,,,,,,,,1.8216432865731462,154.48819500021636,154.68876560032368,154.48819500021636,154.68876560032368,154.48819500021636,154.68876560032368,154.48819500021636,154.68876560032368,154.48819500021636,154.68876560032368,154.48819500021636,154.48819500021636,['1'],154.48819500021636,154.48819500021636,1,[0.327967899851501],,,,,,,,,,,,,,,,,,,,,,,,,,,,,,,,,,,,,,,,,,,,16004,A,1,1,2022_May_12_1402,flanker-basic_v5,2021.2.3,240.37825919862127,
img/rightArrow.png,img/leftArrow.png,img/leftArrow.png,img/leftArrow.png,img/leftArrow.png,3,0,right,,,0,0,0,0,8,1,33,2,,,,,,,,,,,,,,,,,,,,,,,1.870741482965932,156.35928770015016,156.56140070036054,156.35928770015016,156.56140070036054,156.35928770015016,156.56140070036054,156.35928770015016,156.56140070036054,156.35928770015016,156.56140070036054,156.35928770015016,156.35928770015016,['8'],156.35928770015016,156.35928770015016,1,[0.33886410016566515],,,,,,,,,,,,,,,,,,,,,,,,,,,,,,,,,,,,,,,,,,,,16004,A,1,1,2022_May_12_1402,flanker-basic_v5,2021.2.3,240.37825919862127,
img/rightArrow.png,img/rightArrow.png,img/rightArrow.png,img/rightArrow.png,img/rightArrow.png,1,1,right,,,0,0,0,0,8,2,34,0,,,,,,,,,,,,,,,,,,,,,,,1.871743486973948,158.28532490041107,158.48712170030922,158.28532490041107,158.48712170030922,158.28532490041107,158.48712170030922,158.28532490041107,158.48712170030922,158.28532490041107,158.48712170030922,158.28532490041107,158.28532490041107,['8'],158.28532490041107,158.28532490041107,1,[0.38677719980478287],,,,,,,,,,,,,,,,,,,,,,,,,,,,,,,,,,,,,,,,,,,,16004,A,1,1,2022_May_12_1402,flanker-basic_v5,2021.2.3,240.37825919862127,
img/leftArrow.png,img/rightArrow.png,img/rightArrow.png,img/rightArrow.png,img/rightArrow.png,4,0,left,,,0,0,0,0,8,3,35,3,,,,,,,,,,,,,,,,,,,,,,,1.9148296593186374,160.20238030003384,160.40694480016828,160.20238030003384,160.40694480016828,160.20238030003384,160.40694480016828,160.20238030003384,160.40694480016828,160.20238030003384,160.40694480016828,160.20238030003384,160.20238030003384,['1'],160.20238030003384,160.20238030003384,1,[0.33891519997268915],,,,,,,,,,,,,,,,,,,,,,,,,,,,,,,,,,,,,,,,,,,,16004,A,1,1,2022_May_12_1402,flanker-basic_v5,2021.2.3,240.37825919862127,
img/leftArrow.png,img/leftArrow.png,img/leftArrow.png,img/leftArrow.png,img/leftArrow.png,2,1,left,,,0,0,0,0,9,0,36,1,,,,,,,,,,,,,,,,,,,,,,,1.8807615230460921,162.17046720022336,162.3725308002904,162.17046720022336,162.3725308002904,162.17046720022336,162.3725308002904,162.17046720022336,162.3725308002904,162.17046720022336,162.3725308002904,162.17046720022336,162.17046720022336,['1'],162.17046720022336,162.17046720022336,1,[0.3437910000793636],,,,,,,,,,,,,,,,,,,,,,,,,,,,,,,,,,,,,,,,,,,,16004,A,1,1,2022_May_12_1402,flanker-basic_v5,2021.2.3,240.37825919862127,
img/rightArrow.png,img/leftArrow.png,img/leftArrow.png,img/leftArrow.png,img/leftArrow.png,3,0,right,,,0,0,0,0,9,1,37,2,,,,,,,,,,,,,,,,,,,,,,,1.7494989979959918,164.09973090002313,164.2999112000689,164.09973090002313,164.2999112000689,164.09973090002313,164.2999112000689,164.09973090002313,164.2999112000689,164.09973090002313,164.2999112000689,164.09973090002313,164.09973090002313,['8'],164.09973090002313,164.09973090002313,1,[0.3404991999268532],,,,,,,,,,,,,,,,,,,,,,,,,,,,,,,,,,,,,,,,,,,,16004,A,1,1,2022_May_12_1402,flanker-basic_v5,2021.2.3,240.37825919862127,
img/leftArrow.png,img/rightArrow.png,img/rightArrow.png,img/rightArrow.png,img/rightArrow.png,4,0,left,,,0,0,0,0,9,2,38,3,,,,,,,,,,,,,,,,,,,,,,,1.8266533066132264,165.89496320020407,166.09513010038063,165.89496320020407,166.09513010038063,165.89496320020407,166.09513010038063,165.89496320020407,166.09513010038063,165.89496320020407,166.09513010038063,165.89496320020407,165.89496320020407,None,165.89496320020407,165.89496320020407,1,,,,,,,,,,,,,,,,,,,,,,,,,,,,,,,,,,,,,,,,,,,,,16004,A,1,1,2022_May_12_1402,flanker-basic_v5,2021.2.3,240.37825919862127,
img/rightArrow.png,img/rightArrow.png,img/rightArrow.png,img/rightArrow.png,img/rightArrow.png,1,1,right,,,0,0,0,0,9,3,39,0,,,,,,,,,,,,,,,,,,,,,,,1.8156312625250501,167.77216010028496,167.974966800306,167.77216010028496,167.974966800306,167.77216010028496,167.974966800306,167.77216010028496,167.974966800306,167.77216010028496,167.974966800306,167.77216010028496,167.77216010028496,['8'],167.77216010028496,167.77216010028496,1,[0.3712038998492062],,,,,,,,,,,,,,,,,,,,,,,,,,,,,,,,,,,,,,,,,,,,16004,A,1,1,2022_May_12_1402,flanker-basic_v5,2021.2.3,240.37825919862127,
,,,,,,,,,,0,0,0,0,,,,,,,,,,,,,,,,,,,,,,,,,,,,,,,,,,,,,,,,,,,,,169.60051969997585,None,169.60051969997585,None,8,3.0634806002490222,169.60051969997585,None,,,,,,,,,,,,,,,,,,,,,,,,,,,,,,,,,,,,16004,A,1,1,2022_May_12_1402,flanker-basic_v5,2021.2.3,240.37825919862127,
,,,,,,,,,,,,,,,,,,,,,,,,,,,,,,,,,,,,,,,,,,,,,,,,,,,,,,,,,,,,,,,,,,c,63.815618299879134,,,,,,,,,,,,,,,,,,,,,,,,,,,,,,,,,,16004,A,1,1,2022_May_12_1402,flanker-basic_v5,2021.2.3,240.37825919862127,
img/leftArrow.png,img/rightArrow.png,img/rightArrow.png,img/rightArrow.png,img/rightArrow.png,44,0,left,nonsocial_task_trials.xlsx,Alone,,,,,,,,,0,0,0,0,0,0,0,0,0,0,0,3,,,,,,,,,319.5225892001763,None,1.6102204408817635,,,,,,,,,,,,,,,,1,,,,,,,,,,,,c,74.59266739990562,311.1312132002786,None,8,8.370740200392902,311.1312132002786,None,322.5746120000258,322.77500580018386,322.5746120000258,322.77500580018386,322.5746120000258,322.77500580018386,322.5746120000258,322.77500580018386,322.5746120000258,322.77500580018386,322.5746120000258,None,['1'],[0.6256486997008324],322.5746120000258,None,,,,,,,,,,16004,A,1,1,2022_May_12_1402,flanker-basic_v5,2021.2.3,240.37825919862127,
img/rightArrow.png,img/rightArrow.png,img/rightArrow.png,img/rightArrow.png,img/rightArrow.png,41,1,right,nonsocial_task_trials.xlsx,Alone,,,,,,,,,0,0,0,0,0,0,0,0,0,1,1,0,,,,,,,,,,,1.6132264529058116,,,,,,,,,,,,,,,,1,,,,,,,,,,,,,,,,,,,,324.23174610035494,324.43123200023547,324.23174610035494,324.43123200023547,324.23174610035494,324.43123200023547,324.23174610035494,324.43123200023547,324.23174610035494,324.43123200023547,324.23174610035494,324.23174610035494,['8'],[0.60623349994421],324.23174610035494,324.23174610035494,,,,,,,,,,16004,A,1,1,2022_May_12_1402,flanker-basic_v5,2021.2.3,240.37825919862127,
img/leftArrow.png,img/leftArrow.png,img/leftArrow.png,img/leftArrow.png,img/leftArrow.png,42,1,left,nonsocial_task_trials.xlsx,Alone,,,,,,,,,0,0,0,0,0,0,0,0,0,2,2,1,,,,,,,,,,,1.8837675350701402,,,,,,,,,,,,,,,,1,,,,,,,,,,,,,,,,,,,,325.8960531000048,326.099572500214,325.8960531000048,326.099572500214,325.8960531000048,326.099572500214,325.8960531000048,326.099572500214,325.8960531000048,326.099572500214,325.8960531000048,325.8960531000048,['1'],[0.32215620018541813],325.8960531000048,325.8960531000048,,,,,,,,,,16004,A,1,1,2022_May_12_1402,flanker-basic_v5,2021.2.3,240.37825919862127,
img/rightArrow.png,img/leftArrow.png,img/leftArrow.png,img/leftArrow.png,img/leftArrow.png,43,0,right,nonsocial_task_trials.xlsx,Alone,,,,,,,,,0,0,0,0,0,0,0,0,0,3,3,2,,,,,,,,,,,1.5541082164328657,,,,,,,,,,,,,,,,1,,,,,,,,,,,,,,,,,,,,327.8251014002599,328.0283321002498,327.8251014002599,328.0283321002498,327.8251014002599,328.0283321002498,327.8251014002599,328.0283321002498,327.8251014002599,328.0283321002498,327.8251014002599,327.8251014002599,['8'],[0.3698944002389908],327.8251014002599,327.8251014002599,,,,,,,,,,16004,A,1,1,2022_May_12_1402,flanker-basic_v5,2021.2.3,240.37825919862127,
img/leftArrow.png,img/rightArrow.png,img/rightArrow.png,img/rightArrow.png,img/rightArrow.png,44,0,left,nonsocial_task_trials.xlsx,Alone,,,,,,,,,0,0,0,0,0,0,0,0,1,0,4,3,,,,,,,,,,,1.6983967935871742,,,,,,,,,,,,,,,,1,,,,,,,,,,,,,,,,,,,,329.43050060002133,329.6357876001857,329.43050060002133,329.6357876001857,329.43050060002133,329.6357876001857,329.43050060002133,329.6357876001857,329.43050060002133,329.6357876001857,329.43050060002133,329.43050060002133,['1'],[0.39367249980568886],329.43050060002133,329.43050060002133,,,,,,,,,,16004,A,1,1,2022_May_12_1402,flanker-basic_v5,2021.2.3,240.37825919862127,
img/leftArrow.png,img/leftArrow.png,img/leftArrow.png,img/leftArrow.png,img/leftArrow.png,42,1,left,nonsocial_task_trials.xlsx,Alone,,,,,,,,,0,0,0,0,0,0,0,0,1,1,5,1,,,,,,,,,,,1.6653306613226453,,,,,,,,,,,,,,,,1,,,,,,,,,,,,,,,,,,,,331.1935315001756,331.3938857000321,331.1935315001756,331.3938857000321,331.1935315001756,331.3938857000321,331.1935315001756,331.3938857000321,331.1935315001756,331.3938857000321,331.1935315001756,331.1935315001756,['1'],[0.3293718001805246],331.1935315001756,331.1935315001756,,,,,,,,,,16004,A,1,1,2022_May_12_1402,flanker-basic_v5,2021.2.3,240.37825919862127,
img/rightArrow.png,img/rightArrow.png,img/rightArrow.png,img/rightArrow.png,img/rightArrow.png,41,1,right,nonsocial_task_trials.xlsx,Alone,,,,,,,,,0,0,0,0,0,0,0,0,1,2,6,0,,,,,,,,,,,1.5641282565130261,,,,,,,,,,,,,,,,1,,,,,,,,,,,,,,,,,,,,332.905967600178,333.1056024003774,332.905967600178,333.1056024003774,332.905967600178,333.1056024003774,332.905967600178,333.1056024003774,332.905967600178,333.1056024003774,332.905967600178,332.905967600178,['8'],[0.28889580024406314],332.905967600178,332.905967600178,,,,,,,,,,16004,A,1,1,2022_May_12_1402,flanker-basic_v5,2021.2.3,240.37825919862127,
img/rightArrow.png,img/leftArrow.png,img/leftArrow.png,img/leftArrow.png,img/leftArrow.png,43,0,right,nonsocial_task_trials.xlsx,Alone,,,,,,,,,0,0,0,0,0,0,0,0,1,3,7,2,,,,,,,,,,,1.9358717434869739,,,,,,,,,,,,,,,,1,,,,,,,,,,,,,,,,,,,,334.5178126003593,334.7220032000914,334.5178126003593,334.7220032000914,334.5178126003593,334.7220032000914,334.5178126003593,334.7220032000914,334.5178126003593,334.7220032000914,334.5178126003593,334.5178126003593,['8'],[0.48733549984171987],334.5178126003593,334.5178126003593,,,,,,,,,,16004,A,1,1,2022_May_12_1402,flanker-basic_v5,2021.2.3,240.37825919862127,
img/leftArrow.png,img/leftArrow.png,img/leftArrow.png,img/leftArrow.png,img/leftArrow.png,42,1,left,nonsocial_task_trials.xlsx,Alone,,,,,,,,,0,0,0,0,0,0,0,0,2,0,8,1,,,,,,,,,,,1.9549098196392785,,,,,,,,,,,,,,,,1,,,,,,,,,,,,,,,,,,,,336.5031089000404,336.70833520032465,336.5031089000404,336.70833520032465,336.5031089000404,336.70833520032465,336.5031089000404,336.70833520032465,336.5031089000404,336.70833520032465,336.5031089000404,336.5031089000404,['1'],[0.277915199752897],336.5031089000404,336.5031089000404,,,,,,,,,,16004,A,1,1,2022_May_12_1402,flanker-basic_v5,2021.2.3,240.37825919862127,
img/rightArrow.png,img/leftArrow.png,img/leftArrow.png,img/leftArrow.png,img/leftArrow.png,43,0,right,nonsocial_task_trials.xlsx,Alone,,,,,,,,,0,0,0,0,0,0,0,0,2,1,9,2,,,,,,,,,,,1.6753507014028055,,,,,,,,,,,,,,,,1,,,,,,,,,,,,,,,,,,,,338.50313780037686,338.7040389003232,338.50313780037686,338.7040389003232,338.50313780037686,338.7040389003232,338.50313780037686,338.7040389003232,338.50313780037686,338.7040389003232,338.50313780037686,338.50313780037686,['8'],[0.33492529997602105],338.50313780037686,338.50313780037686,,,,,,,,,,16004,A,1,1,2022_May_12_1402,flanker-basic_v5,2021.2.3,240.37825919862127,
img/rightArrow.png,img/rightArrow.png,img/rightArrow.png,img/rightArrow.png,img/rightArrow.png,41,1,right,nonsocial_task_trials.xlsx,Alone,,,,,,,,,0,0,0,0,0,0,0,0,2,2,10,0,,,,,,,,,,,1.9038076152304608,,,,,,,,,,,,,,,,1,,,,,,,,,,,,,,,,,,,,340.2220612000674,340.4238901999779,340.2220612000674,340.4238901999779,340.2220612000674,340.4238901999779,340.2220612000674,340.4238901999779,340.2220612000674,340.4238901999779,340.2220612000674,340.2220612000674,['8'],[0.35998700000345707],340.2220612000674,340.2220612000674,,,,,,,,,,16004,A,1,1,2022_May_12_1402,flanker-basic_v5,2021.2.3,240.37825919862127,
img/leftArrow.png,img/rightArrow.png,img/rightArrow.png,img/rightArrow.png,img/rightArrow.png,44,0,left,nonsocial_task_trials.xlsx,Alone,,,,,,,,,0,0,0,0,0,0,0,0,2,3,11,3,,,,,,,,,,,1.816633266533066,,,,,,,,,,,,,,,,1,,,,,,,,,,,,,,,,,,,,342.1738773002289,342.3747811000794,342.1738773002289,342.3747811000794,342.1738773002289,342.3747811000794,342.1738773002289,342.3747811000794,342.1738773002289,342.3747811000794,342.1738773002289,342.1738773002289,['1'],[0.301518099848181],342.1738773002289,342.1738773002289,,,,,,,,,,16004,A,1,1,2022_May_12_1402,flanker-basic_v5,2021.2.3,240.37825919862127,
img/leftArrow.png,img/rightArrow.png,img/rightArrow.png,img/rightArrow.png,img/rightArrow.png,44,0,left,nonsocial_task_trials.xlsx,Alone,,,,,,,,,0,0,0,0,0,0,0,0,3,0,12,3,,,,,,,,,,,1.5480961923847694,,,,,,,,,,,,,,,,1,,,,,,,,,,,,,,,,,,,,344.03674510028213,344.2391037000343,344.03674510028213,344.2391037000343,344.03674510028213,344.2391037000343,344.03674510028213,344.2391037000343,344.03674510028213,344.2391037000343,344.03674510028213,344.03674510028213,['1'],[0.4483024002984166],344.03674510028213,344.03674510028213,,,,,,,,,,16004,A,1,1,2022_May_12_1402,flanker-basic_v5,2021.2.3,240.37825919862127,
img/rightArrow.png,img/rightArrow.png,img/rightArrow.png,img/rightArrow.png,img/rightArrow.png,41,1,right,nonsocial_task_trials.xlsx,Alone,,,,,,,,,0,0,0,0,0,0,0,0,3,1,13,0,,,,,,,,,,,1.751503006012024,,,,,,,,,,,,,,,,1,,,,,,,,,,,,,,,,,,,,345.6275230003521,345.83267850009724,345.6275230003521,345.83267850009724,345.6275230003521,345.83267850009724,345.6275230003521,345.83267850009724,345.6275230003521,345.83267850009724,345.6275230003521,345.6275230003521,['8'],[0.32843329990282655],345.6275230003521,345.6275230003521,,,,,,,,,,16004,A,1,1,2022_May_12_1402,flanker-basic_v5,2021.2.3,240.37825919862127,
img/rightArrow.png,img/leftArrow.png,img/leftArrow.png,img/leftArrow.png,img/leftArrow.png,43,0,right,nonsocial_task_trials.xlsx,Alone,,,,,,,,,0,0,0,0,0,0,0,0,3,2,14,2,,,,,,,,,,,1.8957915831663326,,,,,,,,,,,,,,,,1,,,,,,,,,,,,,,,,,,,,347.42745880037546,347.6318886000663,347.42745880037546,347.6318886000663,347.42745880037546,347.6318886000663,347.42745880037546,347.6318886000663,347.42745880037546,347.6318886000663,347.42745880037546,347.42745880037546,['8'],[0.39467790024355054],347.42745880037546,347.42745880037546,,,,,,,,,,16004,A,1,1,2022_May_12_1402,flanker-basic_v5,2021.2.3,240.37825919862127,
img/leftArrow.png,img/leftArrow.png,img/leftArrow.png,img/leftArrow.png,img/leftArrow.png,42,1,left,nonsocial_task_trials.xlsx,Alone,,,,,,,,,0,0,0,0,0,0,0,0,3,3,15,1,,,,,,,,,,,1.533066132264529,,,,,,,,,,,,,,,,1,,,,,,,,,,,,,,,,,,,,349.36822490021586,349.572332800366,349.36822490021586,349.572332800366,349.36822490021586,349.572332800366,349.36822490021586,349.572332800366,349.36822490021586,349.572332800366,349.36822490021586,349.36822490021586,['1'],[0.2751206001266837],349.36822490021586,349.36822490021586,,,,,,,,,,16004,A,1,1,2022_May_12_1402,flanker-basic_v5,2021.2.3,240.37825919862127,
img/leftArrow.png,img/leftArrow.png,img/leftArrow.png,img/leftArrow.png,img/leftArrow.png,42,1,left,nonsocial_task_trials.xlsx,Alone,,,,,,,,,0,0,0,0,0,0,0,0,4,0,16,1,,,,,,,,,,,1.6122244488977955,,,,,,,,,,,,,,,,1,,,,,,,,,,,,,,,,,,,,350.9524525003508,351.15714310016483,350.9524525003508,351.15714310016483,350.9524525003508,351.15714310016483,350.9524525003508,351.15714310016483,350.9524525003508,351.15714310016483,350.9524525003508,350.9524525003508,['1'],[0.3114388003014028],350.9524525003508,350.9524525003508,,,,,,,,,,16004,A,1,1,2022_May_12_1402,flanker-basic_v5,2021.2.3,240.37825919862127,
img/rightArrow.png,img/leftArrow.png,img/leftArrow.png,img/leftArrow.png,img/leftArrow.png,43,0,right,nonsocial_task_trials.xlsx,Alone,,,,,,,,,0,0,0,0,0,0,0,0,4,1,17,2,,,,,,,,,,,1.8597194388777554,,,,,,,,,,,,,,,,1,,,,,,,,,,,,,,,,,,,,352.61889909999445,352.82073670020327,352.61889909999445,352.82073670020327,352.61889909999445,352.82073670020327,352.61889909999445,352.82073670020327,352.61889909999445,352.82073670020327,352.61889909999445,352.61889909999445,['8'],[0.32407750003039837],352.61889909999445,352.61889909999445,,,,,,,,,,16004,A,1,1,2022_May_12_1402,flanker-basic_v5,2021.2.3,240.37825919862127,
img/rightArrow.png,img/rightArrow.png,img/rightArrow.png,img/rightArrow.png,img/rightArrow.png,41,1,right,nonsocial_task_trials.xlsx,Alone,,,,,,,,,0,0,0,0,0,0,0,0,4,2,18,0,,,,,,,,,,,1.5410821643286572,,,,,,,,,,,,,,,,0,,,,,,,,,,,,,,,,,,,,354.526171900332,354.72764440020546,354.526171900332,354.72764440020546,354.526171900332,354.72764440020546,354.526171900332,354.72764440020546,354.526171900332,354.72764440020546,354.526171900332,354.526171900332,['1'],[0.25809510005638003],354.526171900332,354.526171900332,,,,,,,,,,16004,A,1,1,2022_May_12_1402,flanker-basic_v5,2021.2.3,240.37825919862127,
img/leftArrow.png,img/rightArrow.png,img/rightArrow.png,img/rightArrow.png,img/rightArrow.png,44,0,left,nonsocial_task_trials.xlsx,Alone,,,,,,,,,0,0,0,0,0,0,0,0,4,3,19,3,,,,,,,,,,,1.882765531062124,,,,,,,,,,,,,,,,1,,,,,,,,,,,,,,,,,,,,356.11977780004963,356.32260029995814,356.11977780004963,356.32260029995814,356.11977780004963,356.32260029995814,356.11977780004963,356.32260029995814,356.11977780004963,356.32260029995814,356.11977780004963,356.11977780004963,['1'],[0.3482714002020657],356.11977780004963,356.11977780004963,,,,,,,,,,16004,A,1,1,2022_May_12_1402,flanker-basic_v5,2021.2.3,240.37825919862127,
img/rightArrow.png,img/leftArrow.png,img/leftArrow.png,img/leftArrow.png,img/leftArrow.png,43,0,right,nonsocial_task_trials.xlsx,Alone,,,,,,,,,0,0,0,0,0,0,0,0,5,0,20,2,,,,,,,,,,,1.8026052104208417,,,,,,,,,,,,,,,,1,,,,,,,,,,,,,,,,,,,,358.04708430031314,358.2480685003102,358.04708430031314,358.2480685003102,358.04708430031314,358.2480685003102,358.04708430031314,358.2480685003102,358.04708430031314,358.2480685003102,358.04708430031314,358.04708430031314,['8'],[0.34083939995616674],358.04708430031314,358.04708430031314,,,,,,,,,,16004,A,1,1,2022_May_12_1402,flanker-basic_v5,2021.2.3,240.37825919862127,
img/rightArrow.png,img/rightArrow.png,img/rightArrow.png,img/rightArrow.png,img/rightArrow.png,41,1,right,nonsocial_task_trials.xlsx,Alone,,,,,,,,,0,0,0,0,0,0,0,0,5,1,21,0,,,,,,,,,,,1.5581162324649298,,,,,,,,,,,,,,,,1,,,,,,,,,,,,,,,,,,,,359.89638100005686,360.09996350016445,359.89638100005686,360.09996350016445,359.89638100005686,360.09996350016445,359.89638100005686,360.09996350016445,359.89638100005686,360.09996350016445,359.89638100005686,359.89638100005686,['8'],[0.37166590010747313],359.89638100005686,359.89638100005686,,,,,,,,,,16004,A,1,1,2022_May_12_1402,flanker-basic_v5,2021.2.3,240.37825919862127,
img/leftArrow.png,img/leftArrow.png,img/leftArrow.png,img/leftArrow.png,img/leftArrow.png,42,1,left,nonsocial_task_trials.xlsx,Alone,,,,,,,,,0,0,0,0,0,0,0,0,5,2,22,1,,,,,,,,,,,1.5991983967935872,,,,,,,,,,,,,,,,1,,,,,,,,,,,,,,,,,,,,361.5030160001479,361.7065623002127,361.5030160001479,361.7065623002127,361.5030160001479,361.7065623002127,361.5030160001479,361.7065623002127,361.5030160001479,361.7065623002127,361.5030160001479,361.5030160001479,['1'],[0.284209200181067],361.5030160001479,361.5030160001479,,,,,,,,,,16004,A,1,1,2022_May_12_1402,flanker-basic_v5,2021.2.3,240.37825919862127,
img/leftArrow.png,img/rightArrow.png,img/rightArrow.png,img/rightArrow.png,img/rightArrow.png,44,0,left,nonsocial_task_trials.xlsx,Alone,,,,,,,,,0,0,0,0,0,0,0,0,5,3,23,3,,,,,,,,,,,1.8967935871743486,,,,,,,,,,,,,,,,0,,,,,,,,,,,,,,,,,,,,363.1481817001477,363.35184979997575,363.1481817001477,363.35184979997575,363.1481817001477,363.35184979997575,363.1481817001477,363.35184979997575,363.1481817001477,363.35184979997575,363.1481817001477,363.1481817001477,['8'],[0.2727312999777496],363.1481817001477,363.1481817001477,,,,,,,,,,16004,A,1,1,2022_May_12_1402,flanker-basic_v5,2021.2.3,240.37825919862127,
img/leftArrow.png,img/rightArrow.png,img/rightArrow.png,img/rightArrow.png,img/rightArrow.png,44,0,left,nonsocial_task_trials.xlsx,Alone,,,,,,,,,0,0,0,0,0,0,0,0,6,0,24,3,,,,,,,,,,,1.6012024048096192,,,,,,,,,,,,,,,,0,,,,,,,,,,,,,,,,,,,,365.0915662003681,365.2970557999797,365.0915662003681,365.2970557999797,365.0915662003681,365.2970557999797,365.0915662003681,365.2970557999797,365.0915662003681,365.2970557999797,365.0915662003681,365.0915662003681,None,,365.0915662003681,365.0915662003681,,,,,,,,,,16004,A,1,1,2022_May_12_1402,flanker-basic_v5,2021.2.3,240.37825919862127,
img/rightArrow.png,img/rightArrow.png,img/rightArrow.png,img/rightArrow.png,img/rightArrow.png,41,1,right,nonsocial_task_trials.xlsx,Alone,,,,,,,,,0,0,0,0,0,0,0,0,6,1,25,0,,,,,,,,,,,1.5460921843687374,,,,,,,,,,,,,,,,1,,,,,,,,,,,,,,,,,,,,366.73945780005306,366.9400955000892,366.73945780005306,366.9400955000892,366.73945780005306,366.9400955000892,366.73945780005306,366.9400955000892,366.73945780005306,366.9400955000892,366.73945780005306,366.73945780005306,['8'],[0.34364330023527145],366.73945780005306,366.73945780005306,,,,,,,,,,16004,A,1,1,2022_May_12_1402,flanker-basic_v5,2021.2.3,240.37825919862127,
img/leftArrow.png,img/leftArrow.png,img/leftArrow.png,img/leftArrow.png,img/leftArrow.png,42,1,left,nonsocial_task_trials.xlsx,Alone,,,,,,,,,0,0,0,0,0,0,0,0,6,2,26,1,,,,,,,,,,,1.501002004008016,,,,,,,,,,,,,,,,1,,,,,,,,,,,,,,,,,,,,368.333077700343,368.5329009001143,368.333077700343,368.5329009001143,368.333077700343,368.5329009001143,368.333077700343,368.5329009001143,368.333077700343,368.5329009001143,368.333077700343,368.333077700343,['1'],[0.3398314998485148],368.333077700343,368.333077700343,,,,,,,,,,16004,A,1,1,2022_May_12_1402,flanker-basic_v5,2021.2.3,240.37825919862127,
img/rightArrow.png,img/leftArrow.png,img/leftArrow.png,img/leftArrow.png,img/leftArrow.png,43,0,right,nonsocial_task_trials.xlsx,Alone,,,,,,,,,0,0,0,0,0,0,0,0,6,3,27,2,,,,,,,,,,,1.7224448897795592,,,,,,,,,,,,,,,,1,,,,,,,,,,,,,,,,,,,,369.8794517000206,370.0813400000334,369.8794517000206,370.0813400000334,369.8794517000206,370.0813400000334,369.8794517000206,370.0813400000334,369.8794517000206,370.0813400000334,369.8794517000206,369.8794517000206,['8'],[0.3233691998757422],369.8794517000206,369.8794517000206,,,,,,,,,,16004,A,1,1,2022_May_12_1402,flanker-basic_v5,2021.2.3,240.37825919862127,
img/rightArrow.png,img/leftArrow.png,img/leftArrow.png,img/leftArrow.png,img/leftArrow.png,43,0,right,nonsocial_task_trials.xlsx,Alone,,,,,,,,,0,0,0,0,0,0,0,0,7,0,28,2,,,,,,,,,,,1.7575150300601203,,,,,,,,,,,,,,,,1,,,,,,,,,,,,,,,,,,,,371.64143110020086,371.846263400279,371.64143110020086,371.846263400279,371.64143110020086,371.846263400279,371.64143110020086,371.846263400279,371.64143110020086,371.846263400279,371.64143110020086,371.64143110020086,['8'],[0.33961170027032495],371.64143110020086,371.64143110020086,,,,,,,,,,16004,A,1,1,2022_May_12_1402,flanker-basic_v5,2021.2.3,240.37825919862127,
img/leftArrow.png,img/rightArrow.png,img/rightArrow.png,img/rightArrow.png,img/rightArrow.png,44,0,left,nonsocial_task_trials.xlsx,Alone,,,,,,,,,0,0,0,0,0,0,0,0,7,1,29,3,,,,,,,,,,,1.818637274549098,,,,,,,,,,,,,,,,1,,,,,,,,,,,,,,,,,,,,373.4462041002698,373.6475409003906,373.4462041002698,373.6475409003906,373.4462041002698,373.6475409003906,373.4462041002698,373.6475409003906,373.4462041002698,373.6475409003906,373.4462041002698,373.4462041002698,['1'],[0.21918539982289076],373.4462041002698,373.4462041002698,,,,,,,,,,16004,A,1,1,2022_May_12_1402,flanker-basic_v5,2021.2.3,240.37825919862127,
img/leftArrow.png,img/leftArrow.png,img/leftArrow.png,img/leftArrow.png,img/leftArrow.png,42,1,left,nonsocial_task_trials.xlsx,Alone,,,,,,,,,0,0,0,0,0,0,0,0,7,2,30,1,,,,,,,,,,,1.6322645290581164,,,,,,,,,,,,,,,,1,,,,,,,,,,,,,,,,,,,,375.31446940032765,375.5170847000554,375.31446940032765,375.5170847000554,375.31446940032765,375.5170847000554,375.31446940032765,375.5170847000554,375.31446940032765,375.5170847000554,375.31446940032765,375.31446940032765,['1'],[0.32773210015147924],375.31446940032765,375.31446940032765,,,,,,,,,,16004,A,1,1,2022_May_12_1402,flanker-basic_v5,2021.2.3,240.37825919862127,
img/rightArrow.png,img/rightArrow.png,img/rightArrow.png,img/rightArrow.png,img/rightArrow.png,41,1,right,nonsocial_task_trials.xlsx,Alone,,,,,,,,,0,0,0,0,0,0,0,0,7,3,31,0,,,,,,,,,,,1.5120240480961924,,,,,,,,,,,,,,,,1,,,,,,,,,,,,,,,,,,,,376.9950797003694,377.2003822000697,376.9950797003694,377.2003822000697,376.9950797003694,377.2003822000697,376.9950797003694,377.2003822000697,376.9950797003694,377.2003822000697,376.9950797003694,376.9950797003694,['8'],[0.33203010028228164],376.9950797003694,376.9950797003694,,,,,,,,,,16004,A,1,1,2022_May_12_1402,flanker-basic_v5,2021.2.3,240.37825919862127,
img/leftArrow.png,img/leftArrow.png,img/leftArrow.png,img/leftArrow.png,img/leftArrow.png,42,1,left,nonsocial_task_trials.xlsx,Alone,,,,,,,,,0,0,0,0,0,0,0,0,8,0,32,1,,,,,,,,,,,1.8597194388777554,,,,,,,,,,,,,,,,1,,,,,,,,,,,,,,,,,,,,378.5556788002141,378.7589670000598,378.5556788002141,378.7589670000598,378.5556788002141,378.7589670000598,378.5556788002141,378.7589670000598,378.5556788002141,378.7589670000598,378.5556788002141,378.5556788002141,['1'],[0.2644767998717725],378.5556788002141,378.5556788002141,,,,,,,,,,16004,A,1,1,2022_May_12_1402,flanker-basic_v5,2021.2.3,240.37825919862127,
img/leftArrow.png,img/rightArrow.png,img/rightArrow.png,img/rightArrow.png,img/rightArrow.png,44,0,left,nonsocial_task_trials.xlsx,Alone,,,,,,,,,0,0,0,0,0,0,0,0,8,1,33,3,,,,,,,,,,,1.6382765531062122,,,,,,,,,,,,,,,,1,,,,,,,,,,,,,,,,,,,,380.4642914002761,380.6639914000407,380.4642914002761,380.6639914000407,380.4642914002761,380.6639914000407,380.4642914002761,380.6639914000407,380.4642914002761,380.6639914000407,380.4642914002761,380.4642914002761,['1'],[0.47168590035289526],380.4642914002761,380.4642914002761,,,,,,,,,,16004,A,1,1,2022_May_12_1402,flanker-basic_v5,2021.2.3,240.37825919862127,
img/rightArrow.png,img/leftArrow.png,img/leftArrow.png,img/leftArrow.png,img/leftArrow.png,43,0,right,nonsocial_task_trials.xlsx,Alone,,,,,,,,,0,0,0,0,0,0,0,0,8,2,34,2,,,,,,,,,,,1.7705410821643286,,,,,,,,,,,,,,,,1,,,,,,,,,,,,,,,,,,,,382.1450852002017,382.3460906003602,382.1450852002017,382.3460906003602,382.1450852002017,382.3460906003602,382.1450852002017,382.3460906003602,382.1450852002017,382.3460906003602,382.1450852002017,382.1450852002017,['8'],[0.329836199991405],382.1450852002017,382.1450852002017,,,,,,,,,,16004,A,1,1,2022_May_12_1402,flanker-basic_v5,2021.2.3,240.37825919862127,
img/rightArrow.png,img/rightArrow.png,img/rightArrow.png,img/rightArrow.png,img/rightArrow.png,41,1,right,nonsocial_task_trials.xlsx,Alone,,,,,,,,,0,0,0,0,0,0,0,0,8,3,35,0,,,,,,,,,,,1.8987975951903806,,,,,,,,,,,,,,,,1,,,,,,,,,,,,,,,,,,,,383.9618710000068,384.1624781000428,383.9618710000068,384.1624781000428,383.9618710000068,384.1624781000428,383.9618710000068,384.1624781000428,383.9618710000068,384.1624781000428,383.9618710000068,383.9618710000068,['8'],[0.36508579971268773],383.9618710000068,383.9618710000068,,,,,,,,,,16004,A,1,1,2022_May_12_1402,flanker-basic_v5,2021.2.3,240.37825919862127,
img/rightArrow.png,img/leftArrow.png,img/leftArrow.png,img/leftArrow.png,img/leftArrow.png,43,0,right,nonsocial_task_trials.xlsx,Alone,,,,,,,,,0,0,0,0,0,0,0,0,9,0,36,2,,,,,,,,,,,1.7615230460921845,,,,,,,,,,,,,,,,1,,,,,,,,,,,,,,,,,,,,385.91026809997857,386.11257300013676,385.91026809997857,386.11257300013676,385.91026809997857,386.11257300013676,385.91026809997857,386.11257300013676,385.91026809997857,386.11257300013676,385.91026809997857,385.91026809997857,['8'],[0.3515464002266526],385.91026809997857,385.91026809997857,,,,,,,,,,16004,A,1,1,2022_May_12_1402,flanker-basic_v5,2021.2.3,240.37825919862127,
img/leftArrow.png,img/leftArrow.png,img/leftArrow.png,img/leftArrow.png,img/leftArrow.png,42,1,left,nonsocial_task_trials.xlsx,Alone,,,,,,,,,0,0,0,0,0,0,0,0,9,1,37,1,,,,,,,,,,,1.6182364729458918,,,,,,,,,,,,,,,,1,,,,,,,,,,,,,,,,,,,,387.7169408001937,387.9179385001771,387.7169408001937,387.9179385001771,387.7169408001937,387.9179385001771,387.7169408001937,387.9179385001771,387.7169408001937,387.9179385001771,387.7169408001937,387.7169408001937,['1'],[0.3554202001541853],387.7169408001937,387.7169408001937,,,,,,,,,,16004,A,1,1,2022_May_12_1402,flanker-basic_v5,2021.2.3,240.37825919862127,
img/rightArrow.png,img/rightArrow.png,img/rightArrow.png,img/rightArrow.png,img/rightArrow.png,41,1,right,nonsocial_task_trials.xlsx,Alone,,,,,,,,,0,0,0,0,0,0,0,0,9,2,38,0,,,,,,,,,,,1.9929859719438878,,,,,,,,,,,,,,,,1,,,,,,,,,,,,,,,,,,,,389.3817934002727,389.58524530008435,389.3817934002727,389.58524530008435,389.3817934002727,389.58524530008435,389.3817934002727,389.58524530008435,389.3817934002727,389.58524530008435,389.3817934002727,389.3817934002727,['8'],[0.2920544003136456],389.3817934002727,389.3817934002727,,,,,,,,,,16004,A,1,1,2022_May_12_1402,flanker-basic_v5,2021.2.3,240.37825919862127,
img/leftArrow.png,img/rightArrow.png,img/rightArrow.png,img/rightArrow.png,img/rightArrow.png,44,0,left,nonsocial_task_trials.xlsx,Alone,,,,,,,,,0,0,0,0,0,0,0,0,9,3,39,3,,,,,,,,,,,1.659318637274549,,,,,,,,,,,,,,,,1,,,,,,,,,,,,,,,,,,,,391.43714060029015,391.64022730011493,391.43714060029015,391.64022730011493,391.43714060029015,391.64022730011493,391.43714060029015,391.64022730011493,391.43714060029015,391.64022730011493,391.43714060029015,391.43714060029015,['1'],[0.4108401001431048],391.43714060029015,391.43714060029015,,,,,,,,,,16004,A,1,1,2022_May_12_1402,flanker-basic_v5,2021.2.3,240.37825919862127,
img/leftArrow.png,img/leftArrow.png,img/leftArrow.png,,,,,,nonsocial_task_trials.xlsx,Alone,,,,,,,,,0,0,0,0,0,0,0,0,,,,,,,,,,,,,,,,,,,,,,,,,,,,,,,,,,,,,,,,,,,,,,,,,,,,,,,,,,,,,,,,,,,2,393.11473960010335,None,8,1.1683922000229359,403.1074670003727,None,,,16004,A,1,1,2022_May_12_1402,flanker-basic_v5,2021.2.3,240.37825919862127,
img/leftArrow.png,img/leftArrow.png,img/leftArrow.png,img/leftArrow.png,img/leftArrow.png,42,1,left,nonsocial_task_trials.xlsx,Alone,,,,,,,,,0,0,0,0,1,0,1,0,0,0,0,1,,,,,,,,,444.29207239998505,None,1.628256513026052,,,,,,,,,,,,,,,,1,,,,,,,,,,,,,,404.2927072001621,None,8,39.97945989994332,404.2927072001621,None,447.3409457001835,447.54090919997543,447.3409457001835,447.54090919997543,447.3409457001835,447.54090919997543,447.3409457001835,447.54090919997543,447.3409457001835,447.54090919997543,447.3409457001835,None,['1'],[0.6880055000074208],447.3409457001835,None,,,,,,,,,,16004,A,1,1,2022_May_12_1402,flanker-basic_v5,2021.2.3,240.37825919862127,
img/rightArrow.png,img/rightArrow.png,img/rightArrow.png,img/rightArrow.png,img/rightArrow.png,41,1,right,nonsocial_task_trials.xlsx,Alone,,,,,,,,,0,0,0,0,1,0,1,0,0,1,1,0,,,,,,,,,,,1.6643286573146292,,,,,,,,,,,,,,,,1,,,,,,,,,,,,,,,,,,,,449.01586400019005,449.218035900034,449.01586400019005,449.218035900034,449.01586400019005,449.218035900034,449.01586400019005,449.218035900034,449.01586400019005,449.218035900034,449.01586400019005,449.01586400019005,['8'],[0.3648847001604736],449.01586400019005,449.01586400019005,,,,,,,,,,16004,A,1,1,2022_May_12_1402,flanker-basic_v5,2021.2.3,240.37825919862127,
img/leftArrow.png,img/rightArrow.png,img/rightArrow.png,img/rightArrow.png,img/rightArrow.png,44,0,left,nonsocial_task_trials.xlsx,Alone,,,,,,,,,0,0,0,0,1,0,1,0,0,2,2,3,,,,,,,,,,,1.9889779559118235,,,,,,,,,,,,,,,,1,,,,,,,,,,,,,,,,,,,,450.72593940002844,450.92591460002586,450.72593940002844,450.92591460002586,450.72593940002844,450.92591460002586,450.72593940002844,450.92591460002586,450.72593940002844,450.92591460002586,450.72593940002844,450.72593940002844,['1'],[0.34783909982070327],450.72593940002844,450.72593940002844,,,,,,,,,,16004,A,1,1,2022_May_12_1402,flanker-basic_v5,2021.2.3,240.37825919862127,
img/rightArrow.png,img/leftArrow.png,img/leftArrow.png,img/leftArrow.png,img/leftArrow.png,43,0,right,nonsocial_task_trials.xlsx,Alone,,,,,,,,,0,0,0,0,1,0,1,0,0,3,3,2,,,,,,,,,,,1.8597194388777554,,,,,,,,,,,,,,,,1,,,,,,,,,,,,,,,,,,,,452.76267430000007,452.9689056002535,452.76267430000007,452.9689056002535,452.76267430000007,452.9689056002535,452.76267430000007,452.9689056002535,452.76267430000007,452.9689056002535,452.76267430000007,452.76267430000007,['8'],[0.30907450011000037],452.76267430000007,452.76267430000007,,,,,,,,,,16004,A,1,1,2022_May_12_1402,flanker-basic_v5,2021.2.3,240.37825919862127,
img/rightArrow.png,img/rightArrow.png,img/rightArrow.png,img/rightArrow.png,img/rightArrow.png,41,1,right,nonsocial_task_trials.xlsx,Alone,,,,,,,,,0,0,0,0,1,0,1,0,1,0,4,0,,,,,,,,,,,1.6693386773547094,,,,,,,,,,,,,,,,1,,,,,,,,,,,,,,,,,,,,454.6686868001707,454.8700789003633,454.6686868001707,454.8700789003633,454.6686868001707,454.8700789003633,454.6686868001707,454.8700789003633,454.6686868001707,454.8700789003633,454.6686868001707,454.6686868001707,['8'],[0.31414130004122853],454.6686868001707,454.6686868001707,,,,,,,,,,16004,A,1,1,2022_May_12_1402,flanker-basic_v5,2021.2.3,240.37825919862127,
img/leftArrow.png,img/leftArrow.png,img/leftArrow.png,img/leftArrow.png,img/leftArrow.png,42,1,left,nonsocial_task_trials.xlsx,Alone,,,,,,,,,0,0,0,0,1,0,1,0,1,1,5,1,,,,,,,,,,,1.7404809619238477,,,,,,,,,,,,,,,,1,,,,,,,,,,,,,,,,,,,,456.37890470027924,456.58105190005153,456.37890470027924,456.58105190005153,456.37890470027924,456.58105190005153,456.37890470027924,456.58105190005153,456.37890470027924,456.58105190005153,456.37890470027924,456.37890470027924,['1'],[0.265784100163728],456.37890470027924,456.37890470027924,,,,,,,,,,16004,A,1,1,2022_May_12_1402,flanker-basic_v5,2021.2.3,240.37825919862127,
img/rightArrow.png,img/leftArrow.png,img/leftArrow.png,img/leftArrow.png,img/leftArrow.png,43,0,right,nonsocial_task_trials.xlsx,Alone,,,,,,,,,0,0,0,0,1,0,1,0,1,2,6,2,,,,,,,,,,,1.527054108216433,,,,,,,,,,,,,,,,1,,,,,,,,,,,,,,,,,,,,458.16870400030166,458.3724895003252,458.16870400030166,458.3724895003252,458.16870400030166,458.3724895003252,458.16870400030166,458.3724895003252,458.16870400030166,458.3724895003252,458.16870400030166,458.16870400030166,['8'],[0.31200300017371774],458.16870400030166,458.16870400030166,,,,,,,,,,16004,A,1,1,2022_May_12_1402,flanker-basic_v5,2021.2.3,240.37825919862127,
img/leftArrow.png,img/rightArrow.png,img/rightArrow.png,img/rightArrow.png,img/rightArrow.png,44,0,left,nonsocial_task_trials.xlsx,Alone,,,,,,,,,0,0,0,0,1,0,1,0,1,3,7,3,,,,,,,,,,,1.8577154308617234,,,,,,,,,,,,,,,,1,,,,,,,,,,,,,,,,,,,,459.7411494003609,459.9450115002692,459.7411494003609,459.9450115002692,459.7411494003609,459.9450115002692,459.7411494003609,459.9450115002692,459.7411494003609,459.9450115002692,459.7411494003609,459.7411494003609,['1'],[0.358551699668169],459.7411494003609,459.7411494003609,,,,,,,,,,16004,A,1,1,2022_May_12_1402,flanker-basic_v5,2021.2.3,240.37825919862127,
img/leftArrow.png,img/leftArrow.png,img/leftArrow.png,img/leftArrow.png,img/leftArrow.png,42,1,left,nonsocial_task_trials.xlsx,Alone,,,,,,,,,0,0,0,0,1,0,1,0,2,0,8,1,,,,,,,,,,,1.8356713426853708,,,,,,,,,,,,,,,,1,,,,,,,,,,,,,,,,,,,,461.6466676001437,461.8482466000132,461.6466676001437,461.8482466000132,461.6466676001437,461.8482466000132,461.6466676001437,461.8482466000132,461.6466676001437,461.8482466000132,461.6466676001437,461.6466676001437,['1'],[0.31140820030122995],461.6466676001437,461.6466676001437,,,,,,,,,,16004,A,1,1,2022_May_12_1402,flanker-basic_v5,2021.2.3,240.37825919862127,
img/rightArrow.png,img/rightArrow.png,img/rightArrow.png,img/rightArrow.png,img/rightArrow.png,41,1,right,nonsocial_task_trials.xlsx,Alone,,,,,,,,,0,0,0,0,1,0,1,0,2,1,9,0,,,,,,,,,,,1.6643286573146292,,,,,,,,,,,,,,,,1,,,,,,,,,,,,,,,,,,,,463.5301801003516,463.73018030030653,463.5301801003516,463.73018030030653,463.5301801003516,463.73018030030653,463.5301801003516,463.73018030030653,463.5301801003516,463.73018030030653,463.5301801003516,463.5301801003516,['8'],[0.33960860036313534],463.5301801003516,463.5301801003516,,,,,,,,,,16004,A,1,1,2022_May_12_1402,flanker-basic_v5,2021.2.3,240.37825919862127,
img/rightArrow.png,img/leftArrow.png,img/leftArrow.png,img/leftArrow.png,img/leftArrow.png,43,0,right,nonsocial_task_trials.xlsx,Alone,,,,,,,,,0,0,0,0,1,0,1,0,2,2,10,2,,,,,,,,,,,1.593186372745491,,,,,,,,,,,,,,,,0,,,,,,,,,,,,,,,,,,,,465.23863700032234,465.44154050014913,465.23863700032234,465.44154050014913,465.23863700032234,465.44154050014913,465.23863700032234,465.44154050014913,465.23863700032234,465.44154050014913,465.23863700032234,465.23863700032234,['1'],[0.27326920023187995],465.23863700032234,465.23863700032234,,,,,,,,,,16004,A,1,1,2022_May_12_1402,flanker-basic_v5,2021.2.3,240.37825919862127,
img/leftArrow.png,img/rightArrow.png,img/rightArrow.png,img/rightArrow.png,img/rightArrow.png,44,0,left,nonsocial_task_trials.xlsx,Alone,,,,,,,,,0,0,0,0,1,0,1,0,2,3,11,3,,,,,,,,,,,1.882765531062124,,,,,,,,,,,,,,,,1,,,,,,,,,,,,,,,,,,,,466.87735059997067,467.07856209995225,466.87735059997067,467.07856209995225,466.87735059997067,467.07856209995225,466.87735059997067,467.07856209995225,466.87735059997067,467.07856209995225,466.87735059997067,466.87735059997067,['1'],[0.41046630032360554],466.87735059997067,466.87735059997067,,,,,,,,,,16004,A,1,1,2022_May_12_1402,flanker-basic_v5,2021.2.3,240.37825919862127,
img/rightArrow.png,img/rightArrow.png,img/rightArrow.png,img/rightArrow.png,img/rightArrow.png,41,1,right,nonsocial_task_trials.xlsx,Alone,,,,,,,,,0,0,0,0,1,0,1,0,3,0,12,0,,,,,,,,,,,1.8206412825651304,,,,,,,,,,,,,,,,1,,,,,,,,,,,,,,,,,,,,468.8110363003798,469.01298590004444,468.8110363003798,469.01298590004444,468.8110363003798,469.01298590004444,468.8110363003798,469.01298590004444,468.8110363003798,469.01298590004444,468.8110363003798,468.8110363003798,['8'],[0.28388489969074726],468.8110363003798,468.8110363003798,,,,,,,,,,16004,A,1,1,2022_May_12_1402,flanker-basic_v5,2021.2.3,240.37825919862127,
img/leftArrow.png,img/leftArrow.png,img/leftArrow.png,img/leftArrow.png,img/leftArrow.png,42,1,left,nonsocial_task_trials.xlsx,Alone,,,,,,,,,0,0,0,0,1,0,1,0,3,1,13,1,,,,,,,,,,,1.6683366733466933,,,,,,,,,,,,,,,,1,,,,,,,,,,,,,,,,,,,,470.6778145004064,470.87767440034077,470.6778145004064,470.87767440034077,470.6778145004064,470.87767440034077,470.6778145004064,470.87767440034077,470.6778145004064,470.87767440034077,470.6778145004064,470.6778145004064,['1'],[0.28395469998940825],470.6778145004064,470.6778145004064,,,,,,,,,,16004,A,1,1,2022_May_12_1402,flanker-basic_v5,2021.2.3,240.37825919862127,
img/leftArrow.png,img/rightArrow.png,img/rightArrow.png,img/rightArrow.png,img/rightArrow.png,44,0,left,nonsocial_task_trials.xlsx,Alone,,,,,,,,,0,0,0,0,1,0,1,0,3,2,14,3,,,,,,,,,,,1.937875751503006,,,,,,,,,,,,,,,,1,,,,,,,,,,,,,,,,,,,,472.3955148002133,472.59843990020454,472.3955148002133,472.59843990020454,472.3955148002133,472.59843990020454,472.3955148002133,472.59843990020454,472.3955148002133,472.59843990020454,472.3955148002133,472.3955148002133,['1'],[0.4463857999071479],472.3955148002133,472.3955148002133,,,,,,,,,,16004,A,1,1,2022_May_12_1402,flanker-basic_v5,2021.2.3,240.37825919862127,
img/rightArrow.png,img/leftArrow.png,img/leftArrow.png,img/leftArrow.png,img/leftArrow.png,43,0,right,nonsocial_task_trials.xlsx,Alone,,,,,,,,,0,0,0,0,1,0,1,0,3,3,15,2,,,,,,,,,,,1.5240480961923848,,,,,,,,,,,,,,,,1,,,,,,,,,,,,,,,,,,,,474.3767438000068,474.578125,474.3767438000068,474.578125,474.3767438000068,474.578125,474.3767438000068,474.578125,474.3767438000068,474.578125,474.3767438000068,474.3767438000068,['8'],[0.29313059989362955],474.3767438000068,474.3767438000068,,,,,,,,,,16004,A,1,1,2022_May_12_1402,flanker-basic_v5,2021.2.3,240.37825919862127,
img/rightArrow.png,img/rightArrow.png,img/rightArrow.png,img/rightArrow.png,img/rightArrow.png,41,1,right,nonsocial_task_trials.xlsx,Alone,,,,,,,,,0,0,0,0,1,0,1,0,4,0,16,0,,,,,,,,,,,1.687374749498998,,,,,,,,,,,,,,,,1,,,,,,,,,,,,,,,,,,,,475.9560698000714,476.1614415002987,475.9560698000714,476.1614415002987,475.9560698000714,476.1614415002987,475.9560698000714,476.1614415002987,475.9560698000714,476.1614415002987,475.9560698000714,475.9560698000714,['8'],[0.42502510035410523],475.9560698000714,475.9560698000714,,,,,,,,,,16004,A,1,1,2022_May_12_1402,flanker-basic_v5,2021.2.3,240.37825919862127,
img/leftArrow.png,img/leftArrow.png,img/leftArrow.png,img/leftArrow.png,img/leftArrow.png,42,1,left,nonsocial_task_trials.xlsx,Alone,,,,,,,,,0,0,0,0,1,0,1,0,4,1,17,1,,,,,,,,,,,1.7925851703406812,,,,,,,,,,,,,,,,1,,,,,,,,,,,,,,,,,,,,477.692214100156,477.8939011003822,477.692214100156,477.8939011003822,477.692214100156,477.8939011003822,477.692214100156,477.8939011003822,477.692214100156,477.8939011003822,477.692214100156,477.692214100156,['1'],[0.35878479992970824],477.692214100156,477.692214100156,,,,,,,,,,16004,A,1,1,2022_May_12_1402,flanker-basic_v5,2021.2.3,240.37825919862127,
img/leftArrow.png,img/rightArrow.png,img/rightArrow.png,img/rightArrow.png,img/rightArrow.png,44,0,left,nonsocial_task_trials.xlsx,Alone,,,,,,,,,0,0,0,0,1,0,1,0,4,2,18,3,,,,,,,,,,,1.813627254509018,,,,,,,,,,,,,,,,0,,,,,,,,,,,,,,,,,,,,479.5462115001865,479.7488624001853,479.5462115001865,479.7488624001853,479.5462115001865,479.7488624001853,479.5462115001865,479.7488624001853,479.5462115001865,479.7488624001853,479.5462115001865,479.5462115001865,['8'],[0.2528670998290181],479.5462115001865,479.5462115001865,,,,,,,,,,16004,A,1,1,2022_May_12_1402,flanker-basic_v5,2021.2.3,240.37825919862127,
img/rightArrow.png,img/leftArrow.png,img/leftArrow.png,img/leftArrow.png,img/leftArrow.png,43,0,right,nonsocial_task_trials.xlsx,Alone,,,,,,,,,0,0,0,0,1,0,1,0,4,3,19,2,,,,,,,,,,,1.5050100200400802,,,,,,,,,,,,,,,,1,,,,,,,,,,,,,,,,,,,,481.40589440008625,481.61085070017725,481.40589440008625,481.61085070017725,481.40589440008625,481.61085070017725,481.40589440008625,481.61085070017725,481.40589440008625,481.61085070017725,481.40589440008625,481.40589440008625,['8'],[0.447942600119859],481.40589440008625,481.40589440008625,,,,,,,,,,16004,A,1,1,2022_May_12_1402,flanker-basic_v5,2021.2.3,240.37825919862127,
img/leftArrow.png,img/leftArrow.png,img/leftArrow.png,img/leftArrow.png,img/leftArrow.png,42,1,left,nonsocial_task_trials.xlsx,Alone,,,,,,,,,0,0,0,0,1,0,1,0,5,0,20,1,,,,,,,,,,,1.5901803607214429,,,,,,,,,,,,,,,,1,,,,,,,,,,,,,,,,,,,,482.958178000059,483.15923830028623,482.958178000059,483.15923830028623,482.958178000059,483.15923830028623,482.958178000059,483.15923830028623,482.958178000059,483.15923830028623,482.958178000059,482.958178000059,['1'],[0.3634931999258697],482.958178000059,482.958178000059,,,,,,,,,,16004,A,1,1,2022_May_12_1402,flanker-basic_v5,2021.2.3,240.37825919862127,
img/rightArrow.png,img/leftArrow.png,img/leftArrow.png,img/leftArrow.png,img/leftArrow.png,43,0,right,nonsocial_task_trials.xlsx,Alone,,,,,,,,,0,0,0,0,1,0,1,0,5,1,21,2,,,,,,,,,,,1.8657314629258517,,,,,,,,,,,,,,,,1,,,,,,,,,,,,,,,,,,,,484.59529680013657,484.79585950030014,484.59529680013657,484.79585950030014,484.59529680013657,484.79585950030014,484.59529680013657,484.79585950030014,484.59529680013657,484.79585950030014,484.59529680013657,484.59529680013657,['8'],[0.33269779989495873],484.59529680013657,484.59529680013657,,,,,,,,,,16004,A,1,1,2022_May_12_1402,flanker-basic_v5,2021.2.3,240.37825919862127,
img/rightArrow.png,img/rightArrow.png,img/rightArrow.png,img/rightArrow.png,img/rightArrow.png,41,1,right,nonsocial_task_trials.xlsx,Alone,,,,,,,,,0,0,0,0,1,0,1,0,5,2,22,0,,,,,,,,,,,1.9629258517034067,,,,,,,,,,,,,,,,1,,,,,,,,,,,,,,,,,,,,486.51055240025744,486.71400060039014,486.51055240025744,486.71400060039014,486.51055240025744,486.71400060039014,486.51055240025744,486.71400060039014,486.51055240025744,486.71400060039014,486.51055240025744,486.51055240025744,['8'],[0.4403929002583027],486.51055240025744,486.51055240025744,,,,,,,,,,16004,A,1,1,2022_May_12_1402,flanker-basic_v5,2021.2.3,240.37825919862127,
img/leftArrow.png,img/rightArrow.png,img/rightArrow.png,img/rightArrow.png,img/rightArrow.png,44,0,left,nonsocial_task_trials.xlsx,Alone,,,,,,,,,0,0,0,0,1,0,1,0,5,3,23,3,,,,,,,,,,,1.5,,,,,,,,,,,,,,,,1,,,,,,,,,,,,,,,,,,,,488.52028740011156,488.72140810033306,488.52028740011156,488.72140810033306,488.52028740011156,488.72140810033306,488.52028740011156,488.72140810033306,488.52028740011156,488.72140810033306,488.52028740011156,488.52028740011156,['1'],[0.30946339992806315],488.52028740011156,488.52028740011156,,,,,,,,,,16004,A,1,1,2022_May_12_1402,flanker-basic_v5,2021.2.3,240.37825919862127,
img/rightArrow.png,img/rightArrow.png,img/rightArrow.png,img/rightArrow.png,img/rightArrow.png,41,1,right,nonsocial_task_trials.xlsx,Alone,,,,,,,,,0,0,0,0,1,0,1,0,6,0,24,0,,,,,,,,,,,1.9539078156312626,,,,,,,,,,,,,,,,1,,,,,,,,,,,,,,,,,,,,490.06795130018145,490.27097230032086,490.06795130018145,490.27097230032086,490.06795130018145,490.27097230032086,490.06795130018145,490.27097230032086,490.06795130018145,490.27097230032086,490.06795130018145,490.06795130018145,['8'],[0.2940398999489844],490.06795130018145,490.06795130018145,,,,,,,,,,16004,A,1,1,2022_May_12_1402,flanker-basic_v5,2021.2.3,240.37825919862127,
img/leftArrow.png,img/leftArrow.png,img/leftArrow.png,img/leftArrow.png,img/leftArrow.png,42,1,left,nonsocial_task_trials.xlsx,Alone,,,,,,,,,0,0,0,0,1,0,1,0,6,1,25,1,,,,,,,,,,,1.7304609218436875,,,,,,,,,,,,,,,,1,,,,,,,,,,,,,,,,,,,,492.06907520024106,492.2730749002658,492.06907520024106,492.2730749002658,492.06907520024106,492.2730749002658,492.06907520024106,492.2730749002658,492.06907520024106,492.2730749002658,492.06907520024106,492.06907520024106,['1'],[0.2585772001184523],492.06907520024106,492.06907520024106,,,,,,,,,,16004,A,1,1,2022_May_12_1402,flanker-basic_v5,2021.2.3,240.37825919862127,
img/rightArrow.png,img/leftArrow.png,img/leftArrow.png,img/leftArrow.png,img/leftArrow.png,43,0,right,nonsocial_task_trials.xlsx,Alone,,,,,,,,,0,0,0,0,1,0,1,0,6,2,26,2,,,,,,,,,,,1.7294589178356714,,,,,,,,,,,,,,,,1,,,,,,,,,,,,,,,,,,,,493.84928570035845,494.05348590016365,493.84928570035845,494.05348590016365,493.84928570035845,494.05348590016365,493.84928570035845,494.05348590016365,493.84928570035845,494.05348590016365,493.84928570035845,493.84928570035845,['8'],[0.2378337001428008],493.84928570035845,493.84928570035845,,,,,,,,,,16004,A,1,1,2022_May_12_1402,flanker-basic_v5,2021.2.3,240.37825919862127,
img/leftArrow.png,img/rightArrow.png,img/rightArrow.png,img/rightArrow.png,img/rightArrow.png,44,0,left,nonsocial_task_trials.xlsx,Alone,,,,,,,,,0,0,0,0,1,0,1,0,6,3,27,3,,,,,,,,,,,1.625250501002004,,,,,,,,,,,,,,,,1,,,,,,,,,,,,,,,,,,,,495.627506100107,495.83225370012224,495.627506100107,495.83225370012224,495.627506100107,495.83225370012224,495.627506100107,495.83225370012224,495.627506100107,495.83225370012224,495.627506100107,495.627506100107,['1'],[0.3095134999603033],495.627506100107,495.627506100107,,,,,,,,,,16004,A,1,1,2022_May_12_1402,flanker-basic_v5,2021.2.3,240.37825919862127,
img/leftArrow.png,img/rightArrow.png,img/rightArrow.png,img/rightArrow.png,img/rightArrow.png,44,0,left,nonsocial_task_trials.xlsx,Alone,,,,,,,,,0,0,0,0,1,0,1,0,7,0,28,3,,,,,,,,,,,1.5160320641282565,,,,,,,,,,,,,,,,0,,,,,,,,,,,,,,,,,,,,497.2984303999692,497.50062010018155,497.2984303999692,497.50062010018155,497.2984303999692,497.50062010018155,497.2984303999692,497.50062010018155,497.2984303999692,497.50062010018155,497.2984303999692,497.2984303999692,"['8', '1']","[0.2583800000138581, 0.5875411001034081]",497.2984303999692,497.2984303999692,,,,,,,,,,16004,A,1,1,2022_May_12_1402,flanker-basic_v5,2021.2.3,240.37825919862127,
img/leftArrow.png,img/leftArrow.png,img/leftArrow.png,img/leftArrow.png,img/leftArrow.png,42,1,left,nonsocial_task_trials.xlsx,Alone,,,,,,,,,0,0,0,0,1,0,1,0,7,1,29,1,,,,,,,,,,,1.622244488977956,,,,,,,,,,,,,,,,1,,,,,,,,,,,,,,,,,,,,498.8589205001481,499.0631885002367,498.8589205001481,499.0631885002367,498.8589205001481,499.0631885002367,498.8589205001481,499.0631885002367,498.8589205001481,499.0631885002367,498.8589205001481,498.8589205001481,['1'],[0.5289155999198556],498.8589205001481,498.8589205001481,,,,,,,,,,16004,A,1,1,2022_May_12_1402,flanker-basic_v5,2021.2.3,240.37825919862127,
img/rightArrow.png,img/rightArrow.png,img/rightArrow.png,img/rightArrow.png,img/rightArrow.png,41,1,right,nonsocial_task_trials.xlsx,Alone,,,,,,,,,0,0,0,0,1,0,1,0,7,2,30,0,,,,,,,,,,,1.6202404809619237,,,,,,,,,,,,,,,,1,,,,,,,,,,,,,,,,,,,,500.5244975001551,500.72801160020754,500.5244975001551,500.72801160020754,500.5244975001551,500.72801160020754,500.5244975001551,500.72801160020754,500.5244975001551,500.72801160020754,500.5244975001551,500.5244975001551,['8'],[0.3004737999290228],500.5244975001551,500.5244975001551,,,,,,,,,,16004,A,1,1,2022_May_12_1402,flanker-basic_v5,2021.2.3,240.37825919862127,
img/rightArrow.png,img/leftArrow.png,img/leftArrow.png,img/leftArrow.png,img/leftArrow.png,43,0,right,nonsocial_task_trials.xlsx,Alone,,,,,,,,,0,0,0,0,1,0,1,0,7,3,31,2,,,,,,,,,,,1.967935871743487,,,,,,,,,,,,,,,,1,,,,,,,,,,,,,,,,,,,,502.1919313999824,502.392987200059,502.1919313999824,502.392987200059,502.1919313999824,502.392987200059,502.1919313999824,502.392987200059,502.1919313999824,502.392987200059,502.1919313999824,502.1919313999824,['8'],[0.4288365999236703],502.1919313999824,502.1919313999824,,,,,,,,,,16004,A,1,1,2022_May_12_1402,flanker-basic_v5,2021.2.3,240.37825919862127,
img/leftArrow.png,img/rightArrow.png,img/rightArrow.png,img/rightArrow.png,img/rightArrow.png,44,0,left,nonsocial_task_trials.xlsx,Alone,,,,,,,,,0,0,0,0,1,0,1,0,8,0,32,3,,,,,,,,,,,1.9699398797595191,,,,,,,,,,,,,,,,1,,,,,,,,,,,,,,,,,,,,504.2059718002565,504.4062361000106,504.2059718002565,504.4062361000106,504.2059718002565,504.4062361000106,504.2059718002565,504.4062361000106,504.2059718002565,504.4062361000106,504.2059718002565,504.2059718002565,['1'],[0.29288889979943633],504.2059718002565,504.2059718002565,,,,,,,,,,16004,A,1,1,2022_May_12_1402,flanker-basic_v5,2021.2.3,240.37825919862127,
img/rightArrow.png,img/rightArrow.png,img/rightArrow.png,img/rightArrow.png,img/rightArrow.png,41,1,right,nonsocial_task_trials.xlsx,Alone,,,,,,,,,0,0,0,0,1,0,1,0,8,1,33,0,,,,,,,,,,,1.5531062124248496,,,,,,,,,,,,,,,,1,,,,,,,,,,,,,,,,,,,,506.22599419998005,506.42915630014613,506.22599419998005,506.42915630014613,506.22599419998005,506.42915630014613,506.22599419998005,506.42915630014613,506.22599419998005,506.42915630014613,506.22599419998005,506.22599419998005,['8'],[0.2998138000257313],506.22599419998005,506.22599419998005,,,,,,,,,,16004,A,1,1,2022_May_12_1402,flanker-basic_v5,2021.2.3,240.37825919862127,
img/leftArrow.png,img/leftArrow.png,img/leftArrow.png,img/leftArrow.png,img/leftArrow.png,42,1,left,nonsocial_task_trials.xlsx,Alone,,,,,,,,,0,0,0,0,1,0,1,0,8,2,34,1,,,,,,,,,,,1.6653306613226453,,,,,,,,,,,,,,,,1,,,,,,,,,,,,,,,,,,,,507.82512910012156,508.0294089000672,507.82512910012156,508.0294089000672,507.82512910012156,508.0294089000672,507.82512910012156,508.0294089000672,507.82512910012156,508.0294089000672,507.82512910012156,507.82512910012156,['1'],[0.3265451998449862],507.82512910012156,507.82512910012156,,,,,,,,,,16004,A,1,1,2022_May_12_1402,flanker-basic_v5,2021.2.3,240.37825919862127,
img/rightArrow.png,img/leftArrow.png,img/leftArrow.png,img/leftArrow.png,img/leftArrow.png,43,0,right,nonsocial_task_trials.xlsx,Alone,,,,,,,,,0,0,0,0,1,0,1,0,8,3,35,2,,,,,,,,,,,1.5040080160320641,,,,,,,,,,,,,,,,1,,,,,,,,,,,,,,,,,,,,509.5395718002692,509.7408015001565,509.5395718002692,509.7408015001565,509.5395718002692,509.7408015001565,509.5395718002692,509.7408015001565,509.5395718002692,509.7408015001565,509.5395718002692,509.5395718002692,['8'],[0.31634849961847067],509.5395718002692,509.5395718002692,,,,,,,,,,16004,A,1,1,2022_May_12_1402,flanker-basic_v5,2021.2.3,240.37825919862127,
img/rightArrow.png,img/rightArrow.png,img/rightArrow.png,img/rightArrow.png,img/rightArrow.png,41,1,right,nonsocial_task_trials.xlsx,Alone,,,,,,,,,0,0,0,0,1,0,1,0,9,0,36,0,,,,,,,,,,,1.9468937875751504,,,,,,,,,,,,,,,,1,,,,,,,,,,,,,,,,,,,,511.091770300176,511.2938203001395,511.091770300176,511.2938203001395,511.091770300176,511.2938203001395,511.091770300176,511.2938203001395,511.091770300176,511.2938203001395,511.091770300176,511.091770300176,['8'],[0.3387858998030424],511.091770300176,511.091770300176,,,,,,,,,,16004,A,1,1,2022_May_12_1402,flanker-basic_v5,2021.2.3,240.37825919862127,
img/leftArrow.png,img/rightArrow.png,img/rightArrow.png,img/rightArrow.png,img/rightArrow.png,44,0,left,nonsocial_task_trials.xlsx,Alone,,,,,,,,,0,0,0,0,1,0,1,0,9,1,37,3,,,,,,,,,,,1.6963927855711423,,,,,,,,,,,,,,,,1,,,,,,,,,,,,,,,,,,,,513.085761200171,513.2894360003993,513.085761200171,513.2894360003993,513.085761200171,513.2894360003993,513.085761200171,513.2894360003993,513.085761200171,513.2894360003993,513.085761200171,513.085761200171,['1'],[0.3209282997995615],513.085761200171,513.085761200171,,,,,,,,,,16004,A,1,1,2022_May_12_1402,flanker-basic_v5,2021.2.3,240.37825919862127,
img/leftArrow.png,img/leftArrow.png,img/leftArrow.png,img/leftArrow.png,img/leftArrow.png,42,1,left,nonsocial_task_trials.xlsx,Alone,,,,,,,,,0,0,0,0,1,0,1,0,9,2,38,1,,,,,,,,,,,1.971943887775551,,,,,,,,,,,,,,,,1,,,,,,,,,,,,,,,,,,,,514.8328714002855,515.0371791999787,514.8328714002855,515.0371791999787,514.8328714002855,515.0371791999787,514.8328714002855,515.0371791999787,514.8328714002855,515.0371791999787,514.8328714002855,514.8328714002855,['1'],[0.28979439986869693],514.8328714002855,514.8328714002855,,,,,,,,,,16004,A,1,1,2022_May_12_1402,flanker-basic_v5,2021.2.3,240.37825919862127,
img/rightArrow.png,img/leftArrow.png,img/leftArrow.png,img/leftArrow.png,img/leftArrow.png,43,0,right,nonsocial_task_trials.xlsx,Alone,,,,,,,,,0,0,0,0,1,0,1,0,9,3,39,2,,,,,,,,,,,1.503006012024048,,,,,,,,,,,,,,,,1,,,,,,,,,,,,,,,,,,,,516.8570741000585,517.0561748002656,516.8570741000585,517.0561748002656,516.8570741000585,517.0561748002656,516.8570741000585,517.0561748002656,516.8570741000585,517.0561748002656,516.8570741000585,516.8570741000585,['8'],[0.26674410002306104],516.8570741000585,516.8570741000585,,,,,,,,,,16004,A,1,1,2022_May_12_1402,flanker-basic_v5,2021.2.3,240.37825919862127,
img/leftArrow.png,img/leftArrow.png,img/leftArrow.png,,,,,,nonsocial_task_trials.xlsx,Alone,,,,,,,,,0,0,0,0,1,0,1,0,,,,,,,,,,,,,,,,,,,,,,,,,,,,,,,,,,,,,,,,,,,,,,,,,,,,,,,,,,,,,,,,,,,2,518.369114600122,None,8,1.0367467002943158,528.3661943003535,None,,,16004,A,1,1,2022_May_12_1402,flanker-basic_v5,2021.2.3,240.37825919862127,
img/leftArrow.png,img/leftArrow.png,img/leftArrow.png,img/leftArrow.png,img/leftArrow.png,42,1,left,nonsocial_task_trials.xlsx,Alone,,,,,,,,,0,0,0,0,2,0,2,0,0,0,0,1,,,,,,,,,532.4826987003908,None,1.5781563126252505,,,,,,,,,,,,,,,,1,,,,,,,,,,,,,,529.4171200003475,None,8,3.041517499834299,529.4171200003475,None,535.525931100361,535.729620500002,535.525931100361,535.729620500002,535.525931100361,535.729620500002,535.525931100361,535.729620500002,535.525931100361,535.729620500002,535.525931100361,None,['1'],[0.36094299983233213],535.525931100361,None,,,,,,,,,,16004,A,1,1,2022_May_12_1402,flanker-basic_v5,2021.2.3,240.37825919862127,
img/leftArrow.png,img/rightArrow.png,img/rightArrow.png,img/rightArrow.png,img/rightArrow.png,44,0,left,nonsocial_task_trials.xlsx,Alone,,,,,,,,,0,0,0,0,2,0,2,0,0,1,1,3,,,,,,,,,,,1.7595190380761523,,,,,,,,,,,,,,,,1,,,,,,,,,,,,,,,,,,,,537.1527304002084,537.3578725000843,537.1527304002084,537.3578725000843,537.1527304002084,537.3578725000843,537.1527304002084,537.3578725000843,537.1527304002084,537.3578725000843,537.1527304002084,537.1527304002084,['1'],[0.42003689985722303],537.1527304002084,537.1527304002084,,,,,,,,,,16004,A,1,1,2022_May_12_1402,flanker-basic_v5,2021.2.3,240.37825919862127,
img/rightArrow.png,img/rightArrow.png,img/rightArrow.png,img/rightArrow.png,img/rightArrow.png,41,1,right,nonsocial_task_trials.xlsx,Alone,,,,,,,,,0,0,0,0,2,0,2,0,0,2,2,0,,,,,,,,,,,1.8657314629258517,,,,,,,,,,,,,,,,0,,,,,,,,,,,,,,,,,,,,538.9622610001825,539.1668050000444,538.9622610001825,539.1668050000444,538.9622610001825,539.1668050000444,538.9622610001825,539.1668050000444,538.9622610001825,539.1668050000444,538.9622610001825,538.9622610001825,"['1', '8']","[0.319365699775517, 0.32853469997644424]",538.9622610001825,538.9622610001825,,,,,,,,,,16004,A,1,1,2022_May_12_1402,flanker-basic_v5,2021.2.3,240.37825919862127,
img/rightArrow.png,img/leftArrow.png,img/leftArrow.png,img/leftArrow.png,img/leftArrow.png,43,0,right,nonsocial_task_trials.xlsx,Alone,,,,,,,,,0,0,0,0,2,0,2,0,0,3,3,2,,,,,,,,,,,1.5531062124248496,,,,,,,,,,,,,,,,1,,,,,,,,,,,,,,,,,,,,540.8711538002826,541.0733766001649,540.8711538002826,541.0733766001649,540.8711538002826,541.0733766001649,540.8711538002826,541.0733766001649,540.8711538002826,541.0733766001649,540.8711538002826,540.8711538002826,['8'],[0.4365508002229035],540.8711538002826,540.8711538002826,,,,,,,,,,16004,A,1,1,2022_May_12_1402,flanker-basic_v5,2021.2.3,240.37825919862127,
img/rightArrow.png,img/rightArrow.png,img/rightArrow.png,img/rightArrow.png,img/rightArrow.png,41,1,right,nonsocial_task_trials.xlsx,Alone,,,,,,,,,0,0,0,0,2,0,2,0,1,0,4,0,,,,,,,,,,,1.5380761523046091,,,,,,,,,,,,,,,,1,,,,,,,,,,,,,,,,,,,,542.4673121003434,542.6725201001391,542.4673121003434,542.6725201001391,542.4673121003434,542.6725201001391,542.4673121003434,542.6725201001391,542.4673121003434,542.6725201001391,542.4673121003434,542.4673121003434,['8'],[0.31538680009543896],542.4673121003434,542.4673121003434,,,,,,,,,,16004,A,1,1,2022_May_12_1402,flanker-basic_v5,2021.2.3,240.37825919862127,
img/rightArrow.png,img/leftArrow.png,img/leftArrow.png,img/leftArrow.png,img/leftArrow.png,43,0,right,nonsocial_task_trials.xlsx,Alone,,,,,,,,,0,0,0,0,2,0,2,0,1,1,5,2,,,,,,,,,,,1.502004008016032,,,,,,,,,,,,,,,,0,,,,,,,,,,,,,,,,,,,,544.065052700229,544.2700460003689,544.065052700229,544.2700460003689,544.065052700229,544.2700460003689,544.065052700229,544.2700460003689,544.065052700229,544.2700460003689,544.065052700229,544.065052700229,['1'],[0.2737753000110388],544.065052700229,544.065052700229,,,,,,,,,,16004,A,1,1,2022_May_12_1402,flanker-basic_v5,2021.2.3,240.37825919862127,
img/leftArrow.png,img/rightArrow.png,img/rightArrow.png,img/rightArrow.png,img/rightArrow.png,44,0,left,nonsocial_task_trials.xlsx,Alone,,,,,,,,,0,0,0,0,2,0,2,0,1,2,6,3,,,,,,,,,,,1.7735470941883769,,,,,,,,,,,,,,,,1,,,,,,,,,,,,,,,,,,,,545.6131209000014,545.8177921003662,545.6131209000014,545.8177921003662,545.6131209000014,545.8177921003662,545.6131209000014,545.8177921003662,545.6131209000014,545.8177921003662,545.6131209000014,545.6131209000014,['1'],[0.34063039999455214],545.6131209000014,545.6131209000014,,,,,,,,,,16004,A,1,1,2022_May_12_1402,flanker-basic_v5,2021.2.3,240.37825919862127,
img/leftArrow.png,img/leftArrow.png,img/leftArrow.png,img/leftArrow.png,img/leftArrow.png,42,1,left,nonsocial_task_trials.xlsx,Alone,,,,,,,,,0,0,0,0,2,0,2,0,1,3,7,1,,,,,,,,,,,1.8236472945891782,,,,,,,,,,,,,,,,1,,,,,,,,,,,,,,,,,,,,547.4321898003109,547.6349051003344,547.4321898003109,547.6349051003344,547.4321898003109,547.6349051003344,547.4321898003109,547.6349051003344,547.4321898003109,547.6349051003344,547.4321898003109,547.4321898003109,['1'],[0.27077999990433455],547.4321898003109,547.4321898003109,,,,,,,,,,16004,A,1,1,2022_May_12_1402,flanker-basic_v5,2021.2.3,240.37825919862127,
img/rightArrow.png,img/rightArrow.png,img/rightArrow.png,img/rightArrow.png,img/rightArrow.png,41,1,right,nonsocial_task_trials.xlsx,Alone,,,,,,,,,0,0,0,0,2,0,2,0,2,0,8,0,,,,,,,,,,,1.6342685370741483,,,,,,,,,,,,,,,,1,,,,,,,,,,,,,,,,,,,,549.3051726999693,549.5064207999967,549.3051726999693,549.5064207999967,549.3051726999693,549.5064207999967,549.3051726999693,549.5064207999967,549.3051726999693,549.5064207999967,549.3051726999693,549.3051726999693,['8'],[0.30993880005553365],549.3051726999693,549.3051726999693,,,,,,,,,,16004,A,1,1,2022_May_12_1402,flanker-basic_v5,2021.2.3,240.37825919862127,
img/leftArrow.png,img/leftArrow.png,img/leftArrow.png,img/leftArrow.png,img/leftArrow.png,42,1,left,nonsocial_task_trials.xlsx,Alone,,,,,,,,,0,0,0,0,2,0,2,0,2,1,9,1,,,,,,,,,,,1.9228456913827654,,,,,,,,,,,,,,,,1,,,,,,,,,,,,,,,,,,,,550.9859187002294,551.1913148001768,550.9859187002294,551.1913148001768,550.9859187002294,551.1913148001768,550.9859187002294,551.1913148001768,550.9859187002294,551.1913148001768,550.9859187002294,550.9859187002294,['1'],[0.2541220998391509],550.9859187002294,550.9859187002294,,,,,,,,,,16004,A,1,1,2022_May_12_1402,flanker-basic_v5,2021.2.3,240.37825919862127,
img/leftArrow.png,img/rightArrow.png,img/rightArrow.png,img/rightArrow.png,img/rightArrow.png,44,0,left,nonsocial_task_trials.xlsx,Alone,,,,,,,,,0,0,0,0,2,0,2,0,2,2,10,3,,,,,,,,,,,1.5420841683366735,,,,,,,,,,,,,,,,1,,,,,,,,,,,,,,,,,,,,552.9580951002426,553.1600059000775,552.9580951002426,553.1600059000775,552.9580951002426,553.1600059000775,552.9580951002426,553.1600059000775,552.9580951002426,553.1600059000775,552.9580951002426,552.9580951002426,['1'],[0.3375520999543369],552.9580951002426,552.9580951002426,,,,,,,,,,16004,A,1,1,2022_May_12_1402,flanker-basic_v5,2021.2.3,240.37825919862127,
img/rightArrow.png,img/leftArrow.png,img/leftArrow.png,img/leftArrow.png,img/leftArrow.png,43,0,right,nonsocial_task_trials.xlsx,Alone,,,,,,,,,0,0,0,0,2,0,2,0,2,3,11,2,,,,,,,,,,,1.8206412825651304,,,,,,,,,,,,,,,,1,,,,,,,,,,,,,,,,,,,,554.5463986000977,554.7458367999643,554.5463986000977,554.7458367999643,554.5463986000977,554.7458367999643,554.5463986000977,554.7458367999643,554.5463986000977,554.7458367999643,554.5463986000977,554.5463986000977,['8'],[0.32128809997811913],554.5463986000977,554.5463986000977,,,,,,,,,,16004,A,1,1,2022_May_12_1402,flanker-basic_v5,2021.2.3,240.37825919862127,
img/leftArrow.png,img/leftArrow.png,img/leftArrow.png,img/leftArrow.png,img/leftArrow.png,42,1,left,nonsocial_task_trials.xlsx,Alone,,,,,,,,,0,0,0,0,2,0,2,0,3,0,12,1,,,,,,,,,,,1.971943887775551,,,,,,,,,,,,,,,,1,,,,,,,,,,,,,,,,,,,,556.4165346999653,556.6201271000318,556.4165346999653,556.6201271000318,556.4165346999653,556.6201271000318,556.4165346999653,556.6201271000318,556.4165346999653,556.6201271000318,556.4165346999653,556.4165346999653,['1'],[0.31911859987303615],556.4165346999653,556.4165346999653,,,,,,,,,,16004,A,1,1,2022_May_12_1402,flanker-basic_v5,2021.2.3,240.37825919862127,
img/leftArrow.png,img/rightArrow.png,img/rightArrow.png,img/rightArrow.png,img/rightArrow.png,44,0,left,nonsocial_task_trials.xlsx,Alone,,,,,,,,,0,0,0,0,2,0,2,0,3,1,13,3,,,,,,,,,,,1.743486973947896,,,,,,,,,,,,,,,,1,,,,,,,,,,,,,,,,,,,,558.4493641001172,558.6492775003426,558.4493641001172,558.6492775003426,558.4493641001172,558.6492775003426,558.4493641001172,558.6492775003426,558.4493641001172,558.6492775003426,558.4493641001172,558.4493641001172,['1'],[0.34841939993202686],558.4493641001172,558.4493641001172,,,,,,,,,,16004,A,1,1,2022_May_12_1402,flanker-basic_v5,2021.2.3,240.37825919862127,
img/rightArrow.png,img/rightArrow.png,img/rightArrow.png,img/rightArrow.png,img/rightArrow.png,41,1,right,nonsocial_task_trials.xlsx,Alone,,,,,,,,,0,0,0,0,2,0,2,0,3,2,14,0,,,,,,,,,,,1.9038076152304608,,,,,,,,,,,,,,,,1,,,,,,,,,,,,,,,,,,,,560.2399295000359,560.4443526002578,560.2399295000359,560.4443526002578,560.2399295000359,560.4443526002578,560.2399295000359,560.4443526002578,560.2399295000359,560.4443526002578,560.2399295000359,560.2399295000359,['8'],[0.29979339987039566],560.2399295000359,560.2399295000359,,,,,,,,,,16004,A,1,1,2022_May_12_1402,flanker-basic_v5,2021.2.3,240.37825919862127,
img/rightArrow.png,img/leftArrow.png,img/leftArrow.png,img/leftArrow.png,img/leftArrow.png,43,0,right,nonsocial_task_trials.xlsx,Alone,,,,,,,,,0,0,0,0,2,0,2,0,3,3,15,2,,,,,,,,,,,1.7785571142284569,,,,,,,,,,,,,,,,1,,,,,,,,,,,,,,,,,,,,562.1907208003104,562.3940682001412,562.1907208003104,562.3940682001412,562.1907208003104,562.3940682001412,562.1907208003104,562.3940682001412,562.1907208003104,562.3940682001412,562.1907208003104,562.1907208003104,['8'],[0.40828309999778867],562.1907208003104,562.1907208003104,,,,,,,,,,16004,A,1,1,2022_May_12_1402,flanker-basic_v5,2021.2.3,240.37825919862127,
img/leftArrow.png,img/leftArrow.png,img/leftArrow.png,img/leftArrow.png,img/leftArrow.png,42,1,left,nonsocial_task_trials.xlsx,Alone,,,,,,,,,0,0,0,0,2,0,2,0,4,0,16,1,,,,,,,,,,,1.6012024048096192,,,,,,,,,,,,,,,,1,,,,,,,,,,,,,,,,,,,,564.0168827003799,564.2187580000609,564.0168827003799,564.2187580000609,564.0168827003799,564.2187580000609,564.0168827003799,564.2187580000609,564.0168827003799,564.2187580000609,564.0168827003799,564.0168827003799,['1'],[0.33788989996537566],564.0168827003799,564.0168827003799,,,,,,,,,,16004,A,1,1,2022_May_12_1402,flanker-basic_v5,2021.2.3,240.37825919862127,
img/leftArrow.png,img/rightArrow.png,img/rightArrow.png,img/rightArrow.png,img/rightArrow.png,44,0,left,nonsocial_task_trials.xlsx,Alone,,,,,,,,,0,0,0,0,2,0,2,0,4,1,17,3,,,,,,,,,,,1.7965931863727456,,,,,,,,,,,,,,,,1,,,,,,,,,,,,,,,,,,,,565.667139200028,565.8716107001528,565.667139200028,565.8716107001528,565.667139200028,565.8716107001528,565.667139200028,565.8716107001528,565.667139200028,565.8716107001528,565.667139200028,565.667139200028,['1'],[0.39952219976112247],565.667139200028,565.667139200028,,,,,,,,,,16004,A,1,1,2022_May_12_1402,flanker-basic_v5,2021.2.3,240.37825919862127,
img/rightArrow.png,img/leftArrow.png,img/leftArrow.png,img/leftArrow.png,img/leftArrow.png,43,0,right,nonsocial_task_trials.xlsx,Alone,,,,,,,,,0,0,0,0,2,0,2,0,4,2,18,2,,,,,,,,,,,1.6382765531062122,,,,,,,,,,,,,,,,1,,,,,,,,,,,,,,,,,,,,567.5136196999811,567.7200954002328,567.5136196999811,567.7200954002328,567.5136196999811,567.7200954002328,567.5136196999811,567.7200954002328,567.5136196999811,567.7200954002328,567.5136196999811,567.5136196999811,['8'],[0.3501448002643883],567.5136196999811,567.5136196999811,,,,,,,,,,16004,A,1,1,2022_May_12_1402,flanker-basic_v5,2021.2.3,240.37825919862127,
img/rightArrow.png,img/rightArrow.png,img/rightArrow.png,img/rightArrow.png,img/rightArrow.png,41,1,right,nonsocial_task_trials.xlsx,Alone,,,,,,,,,0,0,0,0,2,0,2,0,4,3,19,0,,,,,,,,,,,1.7114228456913827,,,,,,,,,,,,,,,,1,,,,,,,,,,,,,,,,,,,,569.203305600211,569.403497800231,569.203305600211,569.403497800231,569.203305600211,569.403497800231,569.203305600211,569.403497800231,569.203305600211,569.403497800231,569.203305600211,569.203305600211,['8'],[0.36639990005642176],569.203305600211,569.203305600211,,,,,,,,,,16004,A,1,1,2022_May_12_1402,flanker-basic_v5,2021.2.3,240.37825919862127,
img/leftArrow.png,img/rightArrow.png,img/rightArrow.png,img/rightArrow.png,img/rightArrow.png,44,0,left,nonsocial_task_trials.xlsx,Alone,,,,,,,,,0,0,0,0,2,0,2,0,5,0,20,3,,,,,,,,,,,1.8366733466933867,,,,,,,,,,,,,,,,1,,,,,,,,,,,,,,,,,,,,570.9645414003171,571.1672642002814,570.9645414003171,571.1672642002814,570.9645414003171,571.1672642002814,570.9645414003171,571.1672642002814,570.9645414003171,571.1672642002814,570.9645414003171,570.9645414003171,['1'],[0.3210947001352906],570.9645414003171,570.9645414003171,,,,,,,,,,16004,A,1,1,2022_May_12_1402,flanker-basic_v5,2021.2.3,240.37825919862127,
img/leftArrow.png,img/leftArrow.png,img/leftArrow.png,img/leftArrow.png,img/leftArrow.png,42,1,left,nonsocial_task_trials.xlsx,Alone,,,,,,,,,0,0,0,0,2,0,2,0,5,1,21,1,,,,,,,,,,,1.971943887775551,,,,,,,,,,,,,,,,1,,,,,,,,,,,,,,,,,,,,572.8491317001171,573.0496637001634,572.8491317001171,573.0496637001634,572.8491317001171,573.0496637001634,572.8491317001171,573.0496637001634,572.8491317001171,573.0496637001634,572.8491317001171,572.8491317001171,['1'],[0.28269500005990267],572.8491317001171,572.8491317001171,,,,,,,,,,16004,A,1,1,2022_May_12_1402,flanker-basic_v5,2021.2.3,240.37825919862127,
img/rightArrow.png,img/rightArrow.png,img/rightArrow.png,img/rightArrow.png,img/rightArrow.png,41,1,right,nonsocial_task_trials.xlsx,Alone,,,,,,,,,0,0,0,0,2,0,2,0,5,2,22,0,,,,,,,,,,,1.8246492985971943,,,,,,,,,,,,,,,,1,,,,,,,,,,,,,,,,,,,,574.8662948999554,575.0686677000485,574.8662948999554,575.0686677000485,574.8662948999554,575.0686677000485,574.8662948999554,575.0686677000485,574.8662948999554,575.0686677000485,574.8662948999554,574.8662948999554,['8'],[0.3864934998564422],574.8662948999554,574.8662948999554,,,,,,,,,,16004,A,1,1,2022_May_12_1402,flanker-basic_v5,2021.2.3,240.37825919862127,
img/rightArrow.png,img/leftArrow.png,img/leftArrow.png,img/leftArrow.png,img/leftArrow.png,43,0,right,nonsocial_task_trials.xlsx,Alone,,,,,,,,,0,0,0,0,2,0,2,0,5,3,23,2,,,,,,,,,,,1.997995991983968,,,,,,,,,,,,,,,,0,,,,,,,,,,,,,,,,,,,,576.7405656003393,576.9400859000161,576.7405656003393,576.9400859000161,576.7405656003393,576.9400859000161,576.7405656003393,576.9400859000161,576.7405656003393,576.9400859000161,576.7405656003393,576.7405656003393,"['1', '8']","[0.24893859960138798, 0.5442440998740494]",576.7405656003393,576.7405656003393,,,,,,,,,,16004,A,1,1,2022_May_12_1402,flanker-basic_v5,2021.2.3,240.37825919862127,
img/leftArrow.png,img/rightArrow.png,img/rightArrow.png,img/rightArrow.png,img/rightArrow.png,44,0,left,nonsocial_task_trials.xlsx,Alone,,,,,,,,,0,0,0,0,2,0,2,0,6,0,24,3,,,,,,,,,,,1.7715430861723447,,,,,,,,,,,,,,,,1,,,,,,,,,,,,,,,,,,,,578.784151500091,578.986080000177,578.784151500091,578.986080000177,578.784151500091,578.986080000177,578.784151500091,578.986080000177,578.784151500091,578.986080000177,578.784151500091,578.784151500091,['1'],[0.3834758000448346],578.784151500091,578.784151500091,,,,,,,,,,16004,A,1,1,2022_May_12_1402,flanker-basic_v5,2021.2.3,240.37825919862127,
img/rightArrow.png,img/leftArrow.png,img/leftArrow.png,img/leftArrow.png,img/leftArrow.png,43,0,right,nonsocial_task_trials.xlsx,Alone,,,,,,,,,0,0,0,0,2,0,2,0,6,1,25,2,,,,,,,,,,,1.7324649298597194,,,,,,,,,,,,,,,,1,,,,,,,,,,,,,,,,,,,,580.6076326002367,580.8079136000015,580.6076326002367,580.8079136000015,580.6076326002367,580.8079136000015,580.6076326002367,580.8079136000015,580.6076326002367,580.8079136000015,580.6076326002367,580.6076326002367,['8'],[0.37231589993461967],580.6076326002367,580.6076326002367,,,,,,,,,,16004,A,1,1,2022_May_12_1402,flanker-basic_v5,2021.2.3,240.37825919862127,
img/leftArrow.png,img/leftArrow.png,img/leftArrow.png,img/leftArrow.png,img/leftArrow.png,42,1,left,nonsocial_task_trials.xlsx,Alone,,,,,,,,,0,0,0,0,2,0,2,0,6,2,26,1,,,,,,,,,,,1.9539078156312626,,,,,,,,,,,,,,,,1,,,,,,,,,,,,,,,,,,,,582.3879222003743,582.5925368000753,582.3879222003743,582.5925368000753,582.3879222003743,582.5925368000753,582.3879222003743,582.5925368000753,582.3879222003743,582.5925368000753,582.3879222003743,582.3879222003743,['1'],[0.2720327996648848],582.3879222003743,582.3879222003743,,,,,,,,,,16004,A,1,1,2022_May_12_1402,flanker-basic_v5,2021.2.3,240.37825919862127,
img/rightArrow.png,img/rightArrow.png,img/rightArrow.png,img/rightArrow.png,img/rightArrow.png,41,1,right,nonsocial_task_trials.xlsx,Alone,,,,,,,,,0,0,0,0,2,0,2,0,6,3,27,0,,,,,,,,,,,1.8677354709418836,,,,,,,,,,,,,,,,1,,,,,,,,,,,,,,,,,,,,584.3954319003969,584.598282800056,584.3954319003969,584.598282800056,584.3954319003969,584.598282800056,584.3954319003969,584.598282800056,584.3954319003969,584.598282800056,584.3954319003969,584.3954319003969,['8'],[0.366134200245142],584.3954319003969,584.3954319003969,,,,,,,,,,16004,A,1,1,2022_May_12_1402,flanker-basic_v5,2021.2.3,240.37825919862127,
img/rightArrow.png,img/leftArrow.png,img/leftArrow.png,img/leftArrow.png,img/leftArrow.png,43,0,right,nonsocial_task_trials.xlsx,Alone,,,,,,,,,0,0,0,0,2,0,2,0,7,0,28,2,,,,,,,,,,,1.8617234468937875,,,,,,,,,,,,,,,,0,,,,,,,,,,,,,,,,,,,,586.3086274000816,586.5143174002878,586.3086274000816,586.5143174002878,586.3086274000816,586.5143174002878,586.3086274000816,586.5143174002878,586.3086274000816,586.5143174002878,586.3086274000816,586.3086274000816,"['1', '8']","[0.29193020006641746, 0.5433583999983966]",586.3086274000816,586.3086274000816,,,,,,,,,,16004,A,1,1,2022_May_12_1402,flanker-basic_v5,2021.2.3,240.37825919862127,
img/leftArrow.png,img/leftArrow.png,img/leftArrow.png,img/leftArrow.png,img/leftArrow.png,42,1,left,nonsocial_task_trials.xlsx,Alone,,,,,,,,,0,0,0,0,2,0,2,0,7,1,29,1,,,,,,,,,,,1.5631262525050098,,,,,,,,,,,,,,,,1,,,,,,,,,,,,,,,,,,,,588.2141339001246,588.4136956003495,588.2141339001246,588.4136956003495,588.2141339001246,588.4136956003495,588.2141339001246,588.4136956003495,588.2141339001246,588.4136956003495,588.2141339001246,588.2141339001246,['1'],[0.2865809998475015],588.2141339001246,588.2141339001246,,,,,,,,,,16004,A,1,1,2022_May_12_1402,flanker-basic_v5,2021.2.3,240.37825919862127,
img/rightArrow.png,img/rightArrow.png,img/rightArrow.png,img/rightArrow.png,img/rightArrow.png,41,1,right,nonsocial_task_trials.xlsx,Alone,,,,,,,,,0,0,0,0,2,0,2,0,7,2,30,0,,,,,,,,,,,1.8496993987975952,,,,,,,,,,,,,,,,1,,,,,,,,,,,,,,,,,,,,589.830908600241,590.0334821003489,589.830908600241,590.0334821003489,589.830908600241,590.0334821003489,589.830908600241,590.0334821003489,589.830908600241,590.0334821003489,589.830908600241,589.830908600241,['8'],[0.38103329995647073],589.830908600241,589.830908600241,,,,,,,,,,16004,A,1,1,2022_May_12_1402,flanker-basic_v5,2021.2.3,240.37825919862127,
img/leftArrow.png,img/rightArrow.png,img/rightArrow.png,img/rightArrow.png,img/rightArrow.png,44,0,left,nonsocial_task_trials.xlsx,Alone,,,,,,,,,0,0,0,0,2,0,2,0,7,3,31,3,,,,,,,,,,,1.8386773547094188,,,,,,,,,,,,,,,,1,,,,,,,,,,,,,,,,,,,,591.7307966002263,591.935007000342,591.7307966002263,591.935007000342,591.7307966002263,591.935007000342,591.7307966002263,591.935007000342,591.7307966002263,591.935007000342,591.7307966002263,591.7307966002263,['1'],[0.43610329972580075],591.7307966002263,591.7307966002263,,,,,,,,,,16004,A,1,1,2022_May_12_1402,flanker-basic_v5,2021.2.3,240.37825919862127,
img/rightArrow.png,img/rightArrow.png,img/rightArrow.png,img/rightArrow.png,img/rightArrow.png,41,1,right,nonsocial_task_trials.xlsx,Alone,,,,,,,,,0,0,0,0,2,0,2,0,8,0,32,0,,,,,,,,,,,1.8296593186372745,,,,,,,,,,,,,,,,1,,,,,,,,,,,,,,,,,,,,593.6175417001359,593.8182773003355,593.6175417001359,593.8182773003355,593.6175417001359,593.8182773003355,593.6175417001359,593.8182773003355,593.6175417001359,593.8182773003355,593.6175417001359,593.6175417001359,['8'],[0.338325799908489],593.6175417001359,593.6175417001359,,,,,,,,,,16004,A,1,1,2022_May_12_1402,flanker-basic_v5,2021.2.3,240.37825919862127,
img/rightArrow.png,img/leftArrow.png,img/leftArrow.png,img/leftArrow.png,img/leftArrow.png,43,0,right,nonsocial_task_trials.xlsx,Alone,,,,,,,,,0,0,0,0,2,0,2,0,8,1,33,2,,,,,,,,,,,1.9559118236472945,,,,,,,,,,,,,,,,1,,,,,,,,,,,,,,,,,,,,595.4939300003462,595.696179700084,595.4939300003462,595.696179700084,595.4939300003462,595.696179700084,595.4939300003462,595.696179700084,595.4939300003462,595.696179700084,595.4939300003462,595.4939300003462,['8'],[0.32368799997493625],595.4939300003462,595.4939300003462,,,,,,,,,,16004,A,1,1,2022_May_12_1402,flanker-basic_v5,2021.2.3,240.37825919862127,
img/leftArrow.png,img/leftArrow.png,img/leftArrow.png,img/leftArrow.png,img/leftArrow.png,42,1,left,nonsocial_task_trials.xlsx,Alone,,,,,,,,,0,0,0,0,2,0,2,0,8,2,34,1,,,,,,,,,,,1.6963927855711423,,,,,,,,,,,,,,,,1,,,,,,,,,,,,,,,,,,,,597.4972867001779,597.6986601999961,597.4972867001779,597.6986601999961,597.4972867001779,597.6986601999961,597.4972867001779,597.6986601999961,597.4972867001779,597.6986601999961,597.4972867001779,597.4972867001779,['1'],[0.30037480033934116],597.4972867001779,597.4972867001779,,,,,,,,,,16004,A,1,1,2022_May_12_1402,flanker-basic_v5,2021.2.3,240.37825919862127,
img/leftArrow.png,img/rightArrow.png,img/rightArrow.png,img/rightArrow.png,img/rightArrow.png,44,0,left,nonsocial_task_trials.xlsx,Alone,,,,,,,,,0,0,0,0,2,0,2,0,8,3,35,3,,,,,,,,,,,1.8857715430861721,,,,,,,,,,,,,,,,1,,,,,,,,,,,,,,,,,,,,599.2410653000697,599.4422108000144,599.2410653000697,599.4422108000144,599.2410653000697,599.4422108000144,599.2410653000697,599.4422108000144,599.2410653000697,599.4422108000144,599.2410653000697,599.2410653000697,['1'],[0.4307169998064637],599.2410653000697,599.2410653000697,,,,,,,,,,16004,A,1,1,2022_May_12_1402,flanker-basic_v5,2021.2.3,240.37825919862127,
img/leftArrow.png,img/rightArrow.png,img/rightArrow.png,img/rightArrow.png,img/rightArrow.png,44,0,left,nonsocial_task_trials.xlsx,Alone,,,,,,,,,0,0,0,0,2,0,2,0,9,0,36,3,,,,,,,,,,,1.9809619238476952,,,,,,,,,,,,,,,,0,,,,,,,,,,,,,,,,,,,,601.1742928000167,601.3777788002044,601.1742928000167,601.3777788002044,601.1742928000167,601.3777788002044,601.1742928000167,601.3777788002044,601.1742928000167,601.3777788002044,601.1742928000167,601.1742928000167,['8'],[0.2904293998144567],601.1742928000167,601.1742928000167,,,,,,,,,,16004,A,1,1,2022_May_12_1402,flanker-basic_v5,2021.2.3,240.37825919862127,
img/leftArrow.png,img/leftArrow.png,img/leftArrow.png,img/leftArrow.png,img/leftArrow.png,42,1,left,nonsocial_task_trials.xlsx,Alone,,,,,,,,,0,0,0,0,2,0,2,0,9,1,37,1,,,,,,,,,,,1.9288577154308617,,,,,,,,,,,,,,,,1,,,,,,,,,,,,,,,,,,,,603.2016961001791,603.4033130002208,603.2016961001791,603.4033130002208,603.2016961001791,603.4033130002208,603.2016961001791,603.4033130002208,603.2016961001791,603.4033130002208,603.2016961001791,603.2016961001791,['1'],[0.7689689001999795],603.2016961001791,603.2016961001791,,,,,,,,,,16004,A,1,1,2022_May_12_1402,flanker-basic_v5,2021.2.3,240.37825919862127,
img/rightArrow.png,img/leftArrow.png,img/leftArrow.png,img/leftArrow.png,img/leftArrow.png,43,0,right,nonsocial_task_trials.xlsx,Alone,,,,,,,,,0,0,0,0,2,0,2,0,9,2,38,2,,,,,,,,,,,1.5420841683366735,,,,,,,,,,,,,,,,1,,,,,,,,,,,,,,,,,,,,605.178547500167,605.3796366001479,605.178547500167,605.3796366001479,605.178547500167,605.3796366001479,605.178547500167,605.3796366001479,605.178547500167,605.3796366001479,605.178547500167,605.178547500167,['8'],[0.3601366998627782],605.178547500167,605.178547500167,,,,,,,,,,16004,A,1,1,2022_May_12_1402,flanker-basic_v5,2021.2.3,240.37825919862127,
img/rightArrow.png,img/rightArrow.png,img/rightArrow.png,img/rightArrow.png,img/rightArrow.png,41,1,right,nonsocial_task_trials.xlsx,Alone,,,,,,,,,0,0,0,0,2,0,2,0,9,3,39,0,,,,,,,,,,,1.7505010020040082,,,,,,,,,,,,,,,,1,,,,,,,,,,,,,,,,,,,,606.7698898999952,606.9693513000384,606.7698898999952,606.9693513000384,606.7698898999952,606.9693513000384,606.7698898999952,606.9693513000384,606.7698898999952,606.9693513000384,606.7698898999952,606.7698898999952,['8'],[0.3696588999591768],606.7698898999952,606.7698898999952,,,,,,,,,,16004,A,1,1,2022_May_12_1402,flanker-basic_v5,2021.2.3,240.37825919862127,
img/leftArrow.png,img/leftArrow.png,img/leftArrow.png,,,,,,nonsocial_task_trials.xlsx,Alone,,,,,,,,,0,0,0,0,2,0,2,0,,,,,,,,,,,,,,,,,,,,,,,,,,,,,,,,,,,,,,,,,,,,,,,,,,,,,,,,,,,,,,,,,,,1,608.533400000073,None,8,3.153930800035596,618.5320864999667,None,,,16004,A,1,1,2022_May_12_1402,flanker-basic_v5,2021.2.3,240.37825919862127,
img/leftArrow.png,img/rightArrow.png,img/rightArrow.png,img/rightArrow.png,img/rightArrow.png,44,0,left,nonsocial_task_trials.xlsx,Alone,,,,,,,,,0,0,0,0,3,0,3,0,0,0,0,3,,,,,,,,,625.0973638002761,None,1.9288577154308617,,,,,,,,,,,,,,,,1,,,,,,,,,,,,,,621.6989082000218,None,8,3.376758699771017,621.6989082000218,None,628.1469690003432,628.3516010004096,628.1469690003432,628.3516010004096,628.1469690003432,628.3516010004096,628.1469690003432,628.3516010004096,628.1469690003432,628.3516010004096,628.1469690003432,None,['1'],[0.9216073998250067],628.1469690003432,None,,,,,,,,,,16004,A,1,1,2022_May_12_1402,flanker-basic_v5,2021.2.3,240.37825919862127,
