middleStim,rightStim1,rightStim2,leftStim1,leftStim2,stimNum,congruent,target,whichCondition,conditionText,prac_block_loop.thisRepN,prac_block_loop.thisTrialN,prac_block_loop.thisN,prac_block_loop.thisIndex,prac_trial_loop.thisRepN,prac_trial_loop.thisTrialN,prac_trial_loop.thisN,prac_trial_loop.thisIndex,task_condition_loop.thisRepN,task_condition_loop.thisTrialN,task_condition_loop.thisN,task_condition_loop.thisIndex,task_block_loop.thisRepN,task_block_loop.thisTrialN,task_block_loop.thisN,task_block_loop.thisIndex,task_trial_loop.thisRepN,task_trial_loop.thisTrialN,task_trial_loop.thisN,task_trial_loop.thisIndex,prac_blockText.started,prac_blockText.stopped,prac_reminder_text.started,prac_reminder_text.stopped,prac_reminder_keyResp.keys,prac_reminder_keyResp.rt,prac_reminder_keyResp.started,prac_reminder_keyResp.stopped,initFixation_img.started,initFixation_img.stopped,ISI,prac_centerImg.started,prac_centerImg.stopped,prac_rightImg1.started,prac_rightImg1.stopped,prac_rightImg2.started,prac_rightImg2.stopped,prac_leftImg1.started,prac_leftImg1.stopped,prac_leftImg2.started,prac_leftImg2.stopped,prac_fixImg.started,prac_fixImg.stopped,prac_stim_keyResp.keys,prac_stim_keyResp.started,prac_stim_keyResp.stopped,accuracy,prac_stim_keyResp.rt,prac_blockFeed_text.started,prac_blockFeed_text.stopped,prac_pressContinue.started,prac_pressContinue.stopped,prac_blockFeed_keyResp.keys,prac_blockFeed_keyResp.rt,prac_blockFeed_keyResp.started,prac_blockFeed_keyResp.stopped,instructMainTask_keyResp.keys,instructMainTask_keyResp.rt,condition_keyResp.keys,condition_keyResp.rt,task_blockText.started,task_blockText.stopped,task_blockReminders_keyResp.keys,task_blockReminders_keyResp.rt,task_blockReminders_keyResp.started,task_blockReminders_keyResp.stopped,task_centerImg.started,task_centerImg.stopped,task_rightImg1.started,task_rightImg1.stopped,task_rightImg2.started,task_rightImg2.stopped,task_leftImg1.started,task_leftImg1.stopped,task_leftImg2.started,task_leftImg2.stopped,task_fixImg.started,task_fixImg.stopped,task_stim_keyResp.keys,task_stim_keyResp.rt,task_stim_keyResp.started,task_stim_keyResp.stopped,blockFeedCat,task_blockFeed_text.started,task_blockFeed_text.stopped,task_blockFeed_keyResp.keys,task_blockFeed_keyResp.rt,task_blockFeed_keyResp.started,task_blockFeed_keyResp.stopped,conditionComplete_key_resp.keys,conditionComplete_key_resp.rt,id,counterbalance,session,run,date,expName,psychopyVersion,frameRate,
img/leftArrow.png,img/rightArrow.png,img/rightArrow.png,img/rightArrow.png,img/rightArrow.png,4,0,left,,,0,0,0,0,0,0,0,3,,,,,,,,,,,,,19.372840699739754,None,19.372840699739754,None,8,16.352790999691933,19.372840699739754,None,35.7470817998983,None,1.6132264529058116,38.79653099970892,38.99613999994472,38.79653099970892,38.99613999994472,38.79653099970892,38.99613999994472,38.79653099970892,38.99613999994472,38.79653099970892,38.99613999994472,38.79653099970892,None,None,38.79653099970892,None,0,,,,,,,,,,,,,,,,,,,,,,,,,,,,,,,,,,,,,,,,,,,,,16003,A,1,1,2022_May_11_1511,flanker-basic_v5,2021.2.3,240.87969238054995,
img/rightArrow.png,img/rightArrow.png,img/rightArrow.png,img/rightArrow.png,img/rightArrow.png,1,1,right,,,0,0,0,0,0,1,1,0,,,,,,,,,,,,,,,,,,,,,,,1.7735470941883769,40.457684100139886,40.65927719976753,40.457684100139886,40.65927719976753,40.457684100139886,40.65927719976753,40.457684100139886,40.65927719976753,40.457684100139886,40.65927719976753,40.457684100139886,40.457684100139886,"['1', '8']",40.457684100139886,40.457684100139886,0,"[0.10377180017530918, 0.9309844998642802]",,,,,,,,,,,,,,,,,,,,,,,,,,,,,,,,,,,,,,,,,,,,16003,A,1,1,2022_May_11_1511,flanker-basic_v5,2021.2.3,240.87969238054995,
img/rightArrow.png,img/leftArrow.png,img/leftArrow.png,img/leftArrow.png,img/leftArrow.png,3,0,right,,,0,0,0,0,0,2,2,2,,,,,,,,,,,,,,,,,,,,,,,1.6162324649298598,42.28089120006189,42.484733200166374,42.28089120006189,42.484733200166374,42.28089120006189,42.484733200166374,42.28089120006189,42.484733200166374,42.28089120006189,42.484733200166374,42.28089120006189,42.28089120006189,['1'],42.28089120006189,42.28089120006189,0,[0.47766169998794794],,,,,,,,,,,,,,,,,,,,,,,,,,,,,,,,,,,,,,,,,,,,16003,A,1,1,2022_May_11_1511,flanker-basic_v5,2021.2.3,240.87969238054995,
img/leftArrow.png,img/leftArrow.png,img/leftArrow.png,img/leftArrow.png,img/leftArrow.png,2,1,left,,,0,0,0,0,0,3,3,1,,,,,,,,,,,,,,,,,,,,,,,1.8617234468937875,43.94706799974665,44.147274899762124,43.94706799974665,44.147274899762124,43.94706799974665,44.147274899762124,43.94706799974665,44.147274899762124,43.94706799974665,44.147274899762124,43.94706799974665,43.94706799974665,['1'],43.94706799974665,43.94706799974665,1,[0.5595289999619126],,,,,,,,,,,,,,,,,,,,,,,,,,,,,,,,,,,,,,,,,,,,16003,A,1,1,2022_May_11_1511,flanker-basic_v5,2021.2.3,240.87969238054995,
img/leftArrow.png,img/leftArrow.png,img/leftArrow.png,img/leftArrow.png,img/leftArrow.png,2,1,left,,,0,0,0,0,1,0,4,1,,,,,,,,,,,,,,,,,,,,,,,1.816633266533066,45.859196700155735,46.060702099930495,45.859196700155735,46.060702099930495,45.859196700155735,46.060702099930495,45.859196700155735,46.060702099930495,45.859196700155735,46.060702099930495,45.859196700155735,45.859196700155735,['1'],45.859196700155735,45.859196700155735,1,[0.6426536999642849],,,,,,,,,,,,,,,,,,,,,,,,,,,,,,,,,,,,,,,,,,,,16003,A,1,1,2022_May_11_1511,flanker-basic_v5,2021.2.3,240.87969238054995,
img/rightArrow.png,img/rightArrow.png,img/rightArrow.png,img/rightArrow.png,img/rightArrow.png,1,1,right,,,0,0,0,0,1,1,5,0,,,,,,,,,,,,,,,,,,,,,,,1.87374749498998,47.72228839993477,47.92533560004085,47.72228839993477,47.92533560004085,47.72228839993477,47.92533560004085,47.72228839993477,47.92533560004085,47.72228839993477,47.92533560004085,47.72228839993477,47.72228839993477,['8'],47.72228839993477,47.72228839993477,1,[0.5024228002876043],,,,,,,,,,,,,,,,,,,,,,,,,,,,,,,,,,,,,,,,,,,,16003,A,1,1,2022_May_11_1511,flanker-basic_v5,2021.2.3,240.87969238054995,
img/leftArrow.png,img/rightArrow.png,img/rightArrow.png,img/rightArrow.png,img/rightArrow.png,4,0,left,,,0,0,0,0,1,2,6,3,,,,,,,,,,,,,,,,,,,,,,,1.5490981963927857,49.64018059987575,49.84052089974284,49.64018059987575,49.84052089974284,49.64018059987575,49.84052089974284,49.64018059987575,49.84052089974284,49.64018059987575,49.84052089974284,49.64018059987575,49.64018059987575,['1'],49.64018059987575,49.64018059987575,1,[0.6864784997887909],,,,,,,,,,,,,,,,,,,,,,,,,,,,,,,,,,,,,,,,,,,,16003,A,1,1,2022_May_11_1511,flanker-basic_v5,2021.2.3,240.87969238054995,
img/rightArrow.png,img/leftArrow.png,img/leftArrow.png,img/leftArrow.png,img/leftArrow.png,3,0,right,,,0,0,0,0,1,3,7,2,,,,,,,,,,,,,,,,,,,,,,,1.6152304609218435,51.23749319976196,51.44309289986268,51.23749319976196,51.44309289986268,51.23749319976196,51.44309289986268,51.23749319976196,51.44309289986268,51.23749319976196,51.44309289986268,51.23749319976196,51.23749319976196,['8'],51.23749319976196,51.23749319976196,1,[0.5010708998888731],,,,,,,,,,,,,,,,,,,,,,,,,,,,,,,,,,,,,,,,,,,,16003,A,1,1,2022_May_11_1511,flanker-basic_v5,2021.2.3,240.87969238054995,
img/leftArrow.png,img/rightArrow.png,img/rightArrow.png,img/rightArrow.png,img/rightArrow.png,4,0,left,,,0,0,0,0,2,0,8,3,,,,,,,,,,,,,,,,,,,,,,,1.5581162324649298,52.89988259971142,53.101567099802196,52.89988259971142,53.101567099802196,52.89988259971142,53.101567099802196,52.89988259971142,53.101567099802196,52.89988259971142,53.101567099802196,52.89988259971142,52.89988259971142,['1'],52.89988259971142,52.89988259971142,1,[0.7395280003547668],,,,,,,,,,,,,,,,,,,,,,,,,,,,,,,,,,,,,,,,,,,,16003,A,1,1,2022_May_11_1511,flanker-basic_v5,2021.2.3,240.87969238054995,
img/leftArrow.png,img/leftArrow.png,img/leftArrow.png,img/leftArrow.png,img/leftArrow.png,2,1,left,,,0,0,0,0,2,1,9,1,,,,,,,,,,,,,,,,,,,,,,,1.6943887775551103,54.50322540011257,54.70730250002816,54.50322540011257,54.70730250002816,54.50322540011257,54.70730250002816,54.50322540011257,54.70730250002816,54.50322540011257,54.70730250002816,54.50322540011257,54.50322540011257,['1'],54.50322540011257,54.50322540011257,1,[0.6881269002333283],,,,,,,,,,,,,,,,,,,,,,,,,,,,,,,,,,,,,,,,,,,,16003,A,1,1,2022_May_11_1511,flanker-basic_v5,2021.2.3,240.87969238054995,
img/rightArrow.png,img/leftArrow.png,img/leftArrow.png,img/leftArrow.png,img/leftArrow.png,3,0,right,,,0,0,0,0,2,2,10,2,,,,,,,,,,,,,,,,,,,,,,,1.5531062124248496,56.24603629997,56.44539210014045,56.24603629997,56.44539210014045,56.24603629997,56.44539210014045,56.24603629997,56.44539210014045,56.24603629997,56.44539210014045,56.24603629997,56.24603629997,['8'],56.24603629997,56.24603629997,1,[0.6435577999800444],,,,,,,,,,,,,,,,,,,,,,,,,,,,,,,,,,,,,,,,,,,,16003,A,1,1,2022_May_11_1511,flanker-basic_v5,2021.2.3,240.87969238054995,
img/rightArrow.png,img/rightArrow.png,img/rightArrow.png,img/rightArrow.png,img/rightArrow.png,1,1,right,,,0,0,0,0,2,3,11,0,,,,,,,,,,,,,,,,,,,,,,,1.5821643286573146,57.8551229997538,58.058119900058955,57.8551229997538,58.058119900058955,57.8551229997538,58.058119900058955,57.8551229997538,58.058119900058955,57.8551229997538,58.058119900058955,57.8551229997538,57.8551229997538,['8'],57.8551229997538,57.8551229997538,1,[0.6255956999957561],,,,,,,,,,,,,,,,,,,,,,,,,,,,,,,,,,,,,,,,,,,,16003,A,1,1,2022_May_11_1511,flanker-basic_v5,2021.2.3,240.87969238054995,
img/rightArrow.png,img/rightArrow.png,img/rightArrow.png,img/rightArrow.png,img/rightArrow.png,1,1,right,,,0,0,0,0,3,0,12,0,,,,,,,,,,,,,,,,,,,,,,,1.9348697394789578,59.48476380016655,59.68618729989976,59.48476380016655,59.68618729989976,59.48476380016655,59.68618729989976,59.48476380016655,59.68618729989976,59.48476380016655,59.68618729989976,59.48476380016655,59.48476380016655,['8'],59.48476380016655,59.48476380016655,1,[0.5087908999994397],,,,,,,,,,,,,,,,,,,,,,,,,,,,,,,,,,,,,,,,,,,,16003,A,1,1,2022_May_11_1511,flanker-basic_v5,2021.2.3,240.87969238054995,
img/rightArrow.png,img/leftArrow.png,img/leftArrow.png,img/leftArrow.png,img/leftArrow.png,3,0,right,,,0,0,0,0,3,1,13,2,,,,,,,,,,,,,,,,,,,,,,,1.87875751503006,61.47228639991954,61.67352700000629,61.47228639991954,61.67352700000629,61.47228639991954,61.67352700000629,61.47228639991954,61.67352700000629,61.47228639991954,61.67352700000629,61.47228639991954,61.47228639991954,['8'],61.47228639991954,61.47228639991954,1,[0.6632621004246175],,,,,,,,,,,,,,,,,,,,,,,,,,,,,,,,,,,,,,,,,,,,16003,A,1,1,2022_May_11_1511,flanker-basic_v5,2021.2.3,240.87969238054995,
img/leftArrow.png,img/leftArrow.png,img/leftArrow.png,img/leftArrow.png,img/leftArrow.png,2,1,left,,,0,0,0,0,3,2,14,1,,,,,,,,,,,,,,,,,,,,,,,1.9078156312625252,63.40045049972832,63.604284199886024,63.40045049972832,63.604284199886024,63.40045049972832,63.604284199886024,63.40045049972832,63.604284199886024,63.40045049972832,63.604284199886024,63.40045049972832,63.40045049972832,['1'],63.40045049972832,63.40045049972832,1,[0.699252899736166],,,,,,,,,,,,,,,,,,,,,,,,,,,,,,,,,,,,,,,,,,,,16003,A,1,1,2022_May_11_1511,flanker-basic_v5,2021.2.3,240.87969238054995,
img/leftArrow.png,img/rightArrow.png,img/rightArrow.png,img/rightArrow.png,img/rightArrow.png,4,0,left,,,0,0,0,0,3,3,15,3,,,,,,,,,,,,,,,,,,,,,,,1.843687374749499,65.35646210005507,65.55982659989968,65.35646210005507,65.55982659989968,65.35646210005507,65.55982659989968,65.35646210005507,65.55982659989968,65.35646210005507,65.55982659989968,65.35646210005507,65.35646210005507,['1'],65.35646210005507,65.35646210005507,1,[0.6680270996876061],,,,,,,,,,,,,,,,,,,,,,,,,,,,,,,,,,,,,,,,,,,,16003,A,1,1,2022_May_11_1511,flanker-basic_v5,2021.2.3,240.87969238054995,
img/rightArrow.png,img/leftArrow.png,img/leftArrow.png,img/leftArrow.png,img/leftArrow.png,3,0,right,,,0,0,0,0,4,0,16,2,,,,,,,,,,,,,,,,,,,,,,,1.5551102204408818,67.2503877999261,67.45145289972425,67.2503877999261,67.45145289972425,67.2503877999261,67.45145289972425,67.2503877999261,67.45145289972425,67.2503877999261,67.45145289972425,67.2503877999261,67.2503877999261,['8'],67.2503877999261,67.2503877999261,1,[0.5845872997306287],,,,,,,,,,,,,,,,,,,,,,,,,,,,,,,,,,,,,,,,,,,,16003,A,1,1,2022_May_11_1511,flanker-basic_v5,2021.2.3,240.87969238054995,
img/rightArrow.png,img/rightArrow.png,img/rightArrow.png,img/rightArrow.png,img/rightArrow.png,1,1,right,,,0,0,0,0,4,1,17,0,,,,,,,,,,,,,,,,,,,,,,,1.6142284569138277,68.85193909984082,69.05380460014567,68.85193909984082,69.05380460014567,68.85193909984082,69.05380460014567,68.85193909984082,69.05380460014567,68.85193909984082,69.05380460014567,68.85193909984082,68.85193909984082,['8'],68.85193909984082,68.85193909984082,1,[0.559756999835372],,,,,,,,,,,,,,,,,,,,,,,,,,,,,,,,,,,,,,,,,,,,16003,A,1,1,2022_May_11_1511,flanker-basic_v5,2021.2.3,240.87969238054995,
img/leftArrow.png,img/leftArrow.png,img/leftArrow.png,img/leftArrow.png,img/leftArrow.png,2,1,left,,,0,0,0,0,4,2,18,1,,,,,,,,,,,,,,,,,,,,,,,1.8577154308617234,70.51450050016865,70.71722170012072,70.51450050016865,70.71722170012072,70.51450050016865,70.71722170012072,70.51450050016865,70.71722170012072,70.51450050016865,70.71722170012072,70.51450050016865,70.51450050016865,['1'],70.51450050016865,70.51450050016865,1,[0.578244199976325],,,,,,,,,,,,,,,,,,,,,,,,,,,,,,,,,,,,,,,,,,,,16003,A,1,1,2022_May_11_1511,flanker-basic_v5,2021.2.3,240.87969238054995,
img/leftArrow.png,img/rightArrow.png,img/rightArrow.png,img/rightArrow.png,img/rightArrow.png,4,0,left,,,0,0,0,0,4,3,19,3,,,,,,,,,,,,,,,,,,,,,,,1.9268537074148295,72.41773239988834,72.62189029995352,72.41773239988834,72.62189029995352,72.41773239988834,72.62189029995352,72.41773239988834,72.62189029995352,72.41773239988834,72.62189029995352,72.41773239988834,72.41773239988834,['1'],72.41773239988834,72.41773239988834,1,[0.6719757998362184],,,,,,,,,,,,,,,,,,,,,,,,,,,,,,,,,,,,,,,,,,,,16003,A,1,1,2022_May_11_1511,flanker-basic_v5,2021.2.3,240.87969238054995,
img/rightArrow.png,img/leftArrow.png,img/leftArrow.png,img/leftArrow.png,img/leftArrow.png,3,0,right,,,0,0,0,0,5,0,20,2,,,,,,,,,,,,,,,,,,,,,,,1.6773547094188377,74.39456439996138,74.5977901997976,74.39456439996138,74.5977901997976,74.39456439996138,74.5977901997976,74.39456439996138,74.5977901997976,74.39456439996138,74.5977901997976,74.39456439996138,74.39456439996138,['8'],74.39456439996138,74.39456439996138,1,[0.500946699641645],,,,,,,,,,,,,,,,,,,,,,,,,,,,,,,,,,,,,,,,,,,,16003,A,1,1,2022_May_11_1511,flanker-basic_v5,2021.2.3,240.87969238054995,
img/rightArrow.png,img/rightArrow.png,img/rightArrow.png,img/rightArrow.png,img/rightArrow.png,1,1,right,,,0,0,0,0,5,1,21,0,,,,,,,,,,,,,,,,,,,,,,,1.6352705410821644,76.12125260010362,76.32468920014799,76.12125260010362,76.32468920014799,76.12125260010362,76.32468920014799,76.12125260010362,76.32468920014799,76.12125260010362,76.32468920014799,76.12125260010362,76.12125260010362,['8'],76.12125260010362,76.12125260010362,1,[0.4601665996015072],,,,,,,,,,,,,,,,,,,,,,,,,,,,,,,,,,,,,,,,,,,,16003,A,1,1,2022_May_11_1511,flanker-basic_v5,2021.2.3,240.87969238054995,
img/leftArrow.png,img/rightArrow.png,img/rightArrow.png,img/rightArrow.png,img/rightArrow.png,4,0,left,,,0,0,0,0,5,2,22,3,,,,,,,,,,,,,,,,,,,,,,,1.9769539078156313,77.80213740002364,78.00472249975428,77.80213740002364,78.00472249975428,77.80213740002364,78.00472249975428,77.80213740002364,78.00472249975428,77.80213740002364,78.00472249975428,77.80213740002364,77.80213740002364,['1'],77.80213740002364,77.80213740002364,1,[0.49026429979130626],,,,,,,,,,,,,,,,,,,,,,,,,,,,,,,,,,,,,,,,,,,,16003,A,1,1,2022_May_11_1511,flanker-basic_v5,2021.2.3,240.87969238054995,
img/leftArrow.png,img/leftArrow.png,img/leftArrow.png,img/leftArrow.png,img/leftArrow.png,2,1,left,,,0,0,0,0,5,3,23,1,,,,,,,,,,,,,,,,,,,,,,,1.501002004008016,79.83152189990506,80.0352575997822,79.83152189990506,80.0352575997822,79.83152189990506,80.0352575997822,79.83152189990506,80.0352575997822,79.83152189990506,80.0352575997822,79.83152189990506,79.83152189990506,['1'],79.83152189990506,79.83152189990506,1,[0.5321236001327634],,,,,,,,,,,,,,,,,,,,,,,,,,,,,,,,,,,,,,,,,,,,16003,A,1,1,2022_May_11_1511,flanker-basic_v5,2021.2.3,240.87969238054995,
img/rightArrow.png,img/leftArrow.png,img/leftArrow.png,img/leftArrow.png,img/leftArrow.png,3,0,right,,,0,0,0,0,6,0,24,2,,,,,,,,,,,,,,,,,,,,,,,1.8466933867735469,81.38564149988815,81.58639890002087,81.38564149988815,81.58639890002087,81.38564149988815,81.58639890002087,81.38564149988815,81.58639890002087,81.38564149988815,81.58639890002087,81.38564149988815,81.38564149988815,['8'],81.38564149988815,81.38564149988815,1,[0.7786889998242259],,,,,,,,,,,,,,,,,,,,,,,,,,,,,,,,,,,,,,,,,,,,16003,A,1,1,2022_May_11_1511,flanker-basic_v5,2021.2.3,240.87969238054995,
img/leftArrow.png,img/rightArrow.png,img/rightArrow.png,img/rightArrow.png,img/rightArrow.png,4,0,left,,,0,0,0,0,6,1,25,3,,,,,,,,,,,,,,,,,,,,,,,1.8927855711422845,83.2801838000305,83.48098829993978,83.2801838000305,83.48098829993978,83.2801838000305,83.48098829993978,83.2801838000305,83.48098829993978,83.2801838000305,83.48098829993978,83.2801838000305,83.2801838000305,['1'],83.2801838000305,83.2801838000305,1,[0.48425780003890395],,,,,,,,,,,,,,,,,,,,,,,,,,,,,,,,,,,,,,,,,,,,16003,A,1,1,2022_May_11_1511,flanker-basic_v5,2021.2.3,240.87969238054995,
img/rightArrow.png,img/rightArrow.png,img/rightArrow.png,img/rightArrow.png,img/rightArrow.png,1,1,right,,,0,0,0,0,6,2,26,0,,,,,,,,,,,,,,,,,,,,,,,1.9478957915831663,85.22168259974569,85.42562639992684,85.22168259974569,85.42562639992684,85.22168259974569,85.42562639992684,85.22168259974569,85.42562639992684,85.22168259974569,85.42562639992684,85.22168259974569,85.22168259974569,['8'],85.22168259974569,85.22168259974569,1,[0.6687599997967482],,,,,,,,,,,,,,,,,,,,,,,,,,,,,,,,,,,,,,,,,,,,16003,A,1,1,2022_May_11_1511,flanker-basic_v5,2021.2.3,240.87969238054995,
img/leftArrow.png,img/leftArrow.png,img/leftArrow.png,img/leftArrow.png,img/leftArrow.png,2,1,left,,,0,0,0,0,6,3,27,1,,,,,,,,,,,,,,,,,,,,,,,1.5901803607214429,87.2167243999429,87.41753660002723,87.2167243999429,87.41753660002723,87.2167243999429,87.41753660002723,87.2167243999429,87.41753660002723,87.2167243999429,87.41753660002723,87.2167243999429,87.2167243999429,['1'],87.2167243999429,87.2167243999429,1,[0.9039388000965118],,,,,,,,,,,,,,,,,,,,,,,,,,,,,,,,,,,,,,,,,,,,16003,A,1,1,2022_May_11_1511,flanker-basic_v5,2021.2.3,240.87969238054995,
img/rightArrow.png,img/rightArrow.png,img/rightArrow.png,img/rightArrow.png,img/rightArrow.png,1,1,right,,,0,0,0,0,7,0,28,0,,,,,,,,,,,,,,,,,,,,,,,1.782565130260521,88.85406469972804,89.05847699986771,88.85406469972804,89.05847699986771,88.85406469972804,89.05847699986771,88.85406469972804,89.05847699986771,88.85406469972804,89.05847699986771,88.85406469972804,88.85406469972804,['8'],88.85406469972804,88.85406469972804,1,[0.49246260011568666],,,,,,,,,,,,,,,,,,,,,,,,,,,,,,,,,,,,,,,,,,,,16003,A,1,1,2022_May_11_1511,flanker-basic_v5,2021.2.3,240.87969238054995,
img/leftArrow.png,img/leftArrow.png,img/leftArrow.png,img/leftArrow.png,img/leftArrow.png,2,1,left,,,0,0,0,0,7,1,29,1,,,,,,,,,,,,,,,,,,,,,,,1.933867735470942,90.68714440008625,90.89046420017257,90.68714440008625,90.89046420017257,90.68714440008625,90.89046420017257,90.68714440008625,90.89046420017257,90.68714440008625,90.89046420017257,90.68714440008625,90.68714440008625,['1'],90.68714440008625,90.68714440008625,1,[0.6004135999828577],,,,,,,,,,,,,,,,,,,,,,,,,,,,,,,,,,,,,,,,,,,,16003,A,1,1,2022_May_11_1511,flanker-basic_v5,2021.2.3,240.87969238054995,
img/leftArrow.png,img/rightArrow.png,img/rightArrow.png,img/rightArrow.png,img/rightArrow.png,4,0,left,,,0,0,0,0,7,2,30,3,,,,,,,,,,,,,,,,,,,,,,,1.5781563126252505,92.6673381999135,92.8715182999149,92.6673381999135,92.8715182999149,92.6673381999135,92.8715182999149,92.6673381999135,92.8715182999149,92.6673381999135,92.8715182999149,92.6673381999135,92.6673381999135,['1'],92.6673381999135,92.6673381999135,1,[0.649284299928695],,,,,,,,,,,,,,,,,,,,,,,,,,,,,,,,,,,,,,,,,,,,16003,A,1,1,2022_May_11_1511,flanker-basic_v5,2021.2.3,240.87969238054995,
img/rightArrow.png,img/leftArrow.png,img/leftArrow.png,img/leftArrow.png,img/leftArrow.png,3,0,right,,,0,0,0,0,7,3,31,2,,,,,,,,,,,,,,,,,,,,,,,1.5581162324649298,94.29522999981418,94.49988160002977,94.29522999981418,94.49988160002977,94.29522999981418,94.49988160002977,94.29522999981418,94.49988160002977,94.29522999981418,94.49988160002977,94.29522999981418,94.29522999981418,['8'],94.29522999981418,94.29522999981418,1,[0.7090703998692334],,,,,,,,,,,,,,,,,,,,,,,,,,,,,,,,,,,,,,,,,,,,16003,A,1,1,2022_May_11_1511,flanker-basic_v5,2021.2.3,240.87969238054995,
img/rightArrow.png,img/leftArrow.png,img/leftArrow.png,img/leftArrow.png,img/leftArrow.png,3,0,right,,,0,0,0,0,8,0,32,2,,,,,,,,,,,,,,,,,,,,,,,1.657314629258517,95.8996409997344,96.1029809997417,95.8996409997344,96.1029809997417,95.8996409997344,96.1029809997417,95.8996409997344,96.1029809997417,95.8996409997344,96.1029809997417,95.8996409997344,95.8996409997344,['8'],95.8996409997344,95.8996409997344,1,[0.654810699634254],,,,,,,,,,,,,,,,,,,,,,,,,,,,,,,,,,,,,,,,,,,,16003,A,1,1,2022_May_11_1511,flanker-basic_v5,2021.2.3,240.87969238054995,
img/rightArrow.png,img/rightArrow.png,img/rightArrow.png,img/rightArrow.png,img/rightArrow.png,1,1,right,,,0,0,0,0,8,1,33,0,,,,,,,,,,,,,,,,,,,,,,,1.7755511022044088,97.60828849999234,97.80848289979622,97.60828849999234,97.80848289979622,97.60828849999234,97.80848289979622,97.60828849999234,97.80848289979622,97.60828849999234,97.80848289979622,97.60828849999234,97.60828849999234,['8'],97.60828849999234,97.60828849999234,1,[0.5372132998891175],,,,,,,,,,,,,,,,,,,,,,,,,,,,,,,,,,,,,,,,,,,,16003,A,1,1,2022_May_11_1511,flanker-basic_v5,2021.2.3,240.87969238054995,
img/leftArrow.png,img/leftArrow.png,img/leftArrow.png,img/leftArrow.png,img/leftArrow.png,2,1,left,,,0,0,0,0,8,2,34,1,,,,,,,,,,,,,,,,,,,,,,,1.875751503006012,99.43062350014225,99.63240650016814,99.43062350014225,99.63240650016814,99.43062350014225,99.63240650016814,99.43062350014225,99.63240650016814,99.43062350014225,99.63240650016814,99.43062350014225,99.43062350014225,['1'],99.43062350014225,99.43062350014225,1,[0.5178069001995027],,,,,,,,,,,,,,,,,,,,,,,,,,,,,,,,,,,,,,,,,,,,16003,A,1,1,2022_May_11_1511,flanker-basic_v5,2021.2.3,240.87969238054995,
img/leftArrow.png,img/rightArrow.png,img/rightArrow.png,img/rightArrow.png,img/rightArrow.png,4,0,left,,,0,0,0,0,8,3,35,3,,,,,,,,,,,,,,,,,,,,,,,1.7605210420841684,101.35355169977993,101.5565714999102,101.35355169977993,101.5565714999102,101.35355169977993,101.5565714999102,101.35355169977993,101.5565714999102,101.35355169977993,101.5565714999102,101.35355169977993,101.35355169977993,['1'],101.35355169977993,101.35355169977993,1,[0.6159868999384344],,,,,,,,,,,,,,,,,,,,,,,,,,,,,,,,,,,,,,,,,,,,16003,A,1,1,2022_May_11_1511,flanker-basic_v5,2021.2.3,240.87969238054995,
img/leftArrow.png,img/rightArrow.png,img/rightArrow.png,img/rightArrow.png,img/rightArrow.png,4,0,left,,,0,0,0,0,9,0,36,3,,,,,,,,,,,,,,,,,,,,,,,1.7334669338677353,103.16095100017264,103.36342759989202,103.16095100017264,103.36342759989202,103.16095100017264,103.36342759989202,103.16095100017264,103.36342759989202,103.16095100017264,103.36342759989202,103.16095100017264,103.16095100017264,['1'],103.16095100017264,103.16095100017264,1,[0.5785850998945534],,,,,,,,,,,,,,,,,,,,,,,,,,,,,,,,,,,,,,,,,,,,16003,A,1,1,2022_May_11_1511,flanker-basic_v5,2021.2.3,240.87969238054995,
img/rightArrow.png,img/leftArrow.png,img/leftArrow.png,img/leftArrow.png,img/leftArrow.png,3,0,right,,,0,0,0,0,9,1,37,2,,,,,,,,,,,,,,,,,,,,,,,1.6843687374749499,104.9426997997798,105.1447326997295,104.9426997997798,105.1447326997295,104.9426997997798,105.1447326997295,104.9426997997798,105.1447326997295,104.9426997997798,105.1447326997295,104.9426997997798,104.9426997997798,['8'],104.9426997997798,104.9426997997798,1,[0.44882640009745955],,,,,,,,,,,,,,,,,,,,,,,,,,,,,,,,,,,,,,,,,,,,16003,A,1,1,2022_May_11_1511,flanker-basic_v5,2021.2.3,240.87969238054995,
img/rightArrow.png,img/rightArrow.png,img/rightArrow.png,img/rightArrow.png,img/rightArrow.png,1,1,right,,,0,0,0,0,9,2,38,0,,,,,,,,,,,,,,,,,,,,,,,1.6402805611222446,106.67796320002526,106.8798104999587,106.67796320002526,106.8798104999587,106.67796320002526,106.8798104999587,106.67796320002526,106.8798104999587,106.67796320002526,106.8798104999587,106.67796320002526,106.67796320002526,['8'],106.67796320002526,106.67796320002526,1,[0.47066419990733266],,,,,,,,,,,,,,,,,,,,,,,,,,,,,,,,,,,,,,,,,,,,16003,A,1,1,2022_May_11_1511,flanker-basic_v5,2021.2.3,240.87969238054995,
img/leftArrow.png,img/leftArrow.png,img/leftArrow.png,img/leftArrow.png,img/leftArrow.png,2,1,left,,,0,0,0,0,9,3,39,1,,,,,,,,,,,,,,,,,,,,,,,1.6482965931863727,108.36870440002531,108.57139689987525,108.36870440002531,108.57139689987525,108.36870440002531,108.57139689987525,108.36870440002531,108.57139689987525,108.36870440002531,108.57139689987525,108.36870440002531,108.36870440002531,['1'],108.36870440002531,108.36870440002531,1,[0.5319779999554157],,,,,,,,,,,,,,,,,,,,,,,,,,,,,,,,,,,,,,,,,,,,16003,A,1,1,2022_May_11_1511,flanker-basic_v5,2021.2.3,240.87969238054995,
,,,,,,,,,,0,0,0,0,,,,,,,,,,,,,,,,,,,,,,,,,,,,,,,,,,,,,,,,,,,,,110.0269964998588,None,110.0269964998588,None,8,1.8554094000719488,110.0269964998588,None,,,,,,,,,,,,,,,,,,,,,,,,,,,,,,,,,,,,16003,A,1,1,2022_May_11_1511,flanker-basic_v5,2021.2.3,240.87969238054995,
,,,,,,,,,,,,,,,,,,,,,,,,,,,,,,,,,,,,,,,,,,,,,,,,,,,,,,,,,,,,,,,,,,c,27.97392989974469,,,,,,,,,,,,,,,,,,,,,,,,,,,,,,,,,,16003,A,1,1,2022_May_11_1511,flanker-basic_v5,2021.2.3,240.87969238054995,
img/rightArrow.png,img/rightArrow.png,img/rightArrow.png,img/rightArrow.png,img/rightArrow.png,41,1,right,nonsocial_task_trials.xlsx,Alone,,,,,,,,,0,0,0,0,0,0,0,0,0,0,0,0,,,,,,,,,238.86425310000777,None,1.560120240480962,,,,,,,,,,,,,,,,1,,,,,,,,,,,,c,82.50181599985808,222.41197369992733,None,8,16.43316230038181,222.41197369992733,None,241.92766829999164,242.13576239999384,241.92766829999164,242.13576239999384,241.92766829999164,242.13576239999384,241.92766829999164,242.13576239999384,241.92766829999164,242.13576239999384,241.92766829999164,None,['8'],[0.4928254000842571],241.92766829999164,None,,,,,,,,,,16003,A,1,1,2022_May_11_1511,flanker-basic_v5,2021.2.3,240.87969238054995,
img/rightArrow.png,img/leftArrow.png,img/leftArrow.png,img/leftArrow.png,img/leftArrow.png,43,0,right,nonsocial_task_trials.xlsx,Alone,,,,,,,,,0,0,0,0,0,0,0,0,0,1,1,2,,,,,,,,,,,1.5090180360721441,,,,,,,,,,,,,,,,1,,,,,,,,,,,,,,,,,,,,243.5370525997132,243.74081719992682,243.5370525997132,243.74081719992682,243.5370525997132,243.74081719992682,243.5370525997132,243.74081719992682,243.5370525997132,243.74081719992682,243.5370525997132,243.5370525997132,['8'],[0.6033315998502076],243.5370525997132,243.5370525997132,,,,,,,,,,16003,A,1,1,2022_May_11_1511,flanker-basic_v5,2021.2.3,240.87969238054995,
img/leftArrow.png,img/leftArrow.png,img/leftArrow.png,img/leftArrow.png,img/leftArrow.png,42,1,left,nonsocial_task_trials.xlsx,Alone,,,,,,,,,0,0,0,0,0,0,0,0,0,2,2,1,,,,,,,,,,,1.9128256513026052,,,,,,,,,,,,,,,,1,,,,,,,,,,,,,,,,,,,,245.09603639971465,245.30168939987198,245.09603639971465,245.30168939987198,245.09603639971465,245.30168939987198,245.09603639971465,245.30168939987198,245.09603639971465,245.30168939987198,245.09603639971465,245.09603639971465,['1'],[0.44118590001016855],245.09603639971465,245.09603639971465,,,,,,,,,,16003,A,1,1,2022_May_11_1511,flanker-basic_v5,2021.2.3,240.87969238054995,
img/leftArrow.png,img/rightArrow.png,img/rightArrow.png,img/rightArrow.png,img/rightArrow.png,44,0,left,nonsocial_task_trials.xlsx,Alone,,,,,,,,,0,0,0,0,0,0,0,0,0,3,3,3,,,,,,,,,,,1.7945891783567134,,,,,,,,,,,,,,,,0,,,,,,,,,,,,,,,,,,,,247.05345869995654,247.2556986999698,247.05345869995654,247.2556986999698,247.05345869995654,247.2556986999698,247.05345869995654,247.2556986999698,247.05345869995654,247.2556986999698,247.05345869995654,247.05345869995654,"['8', '1']","[0.49589220015332103, 1.0586827001534402]",247.05345869995654,247.05345869995654,,,,,,,,,,16003,A,1,1,2022_May_11_1511,flanker-basic_v5,2021.2.3,240.87969238054995,
img/rightArrow.png,img/rightArrow.png,img/rightArrow.png,img/rightArrow.png,img/rightArrow.png,41,1,right,nonsocial_task_trials.xlsx,Alone,,,,,,,,,0,0,0,0,0,0,0,0,1,0,4,0,,,,,,,,,,,1.8927855711422845,,,,,,,,,,,,,,,,1,,,,,,,,,,,,,,,,,,,,248.89652130007744,249.09996959986165,248.89652130007744,249.09996959986165,248.89652130007744,249.09996959986165,248.89652130007744,249.09996959986165,248.89652130007744,249.09996959986165,248.89652130007744,248.89652130007744,['8'],[0.46481689997017384],248.89652130007744,248.89652130007744,,,,,,,,,,16003,A,1,1,2022_May_11_1511,flanker-basic_v5,2021.2.3,240.87969238054995,
img/rightArrow.png,img/leftArrow.png,img/leftArrow.png,img/leftArrow.png,img/leftArrow.png,43,0,right,nonsocial_task_trials.xlsx,Alone,,,,,,,,,0,0,0,0,0,0,0,0,1,1,5,2,,,,,,,,,,,1.595190380761523,,,,,,,,,,,,,,,,1,,,,,,,,,,,,,,,,,,,,250.83650139998645,251.041465499904,250.83650139998645,251.041465499904,250.83650139998645,251.041465499904,250.83650139998645,251.041465499904,250.83650139998645,251.041465499904,250.83650139998645,250.83650139998645,['8'],[0.5059326998889446],250.83650139998645,250.83650139998645,,,,,,,,,,16003,A,1,1,2022_May_11_1511,flanker-basic_v5,2021.2.3,240.87969238054995,
img/leftArrow.png,img/leftArrow.png,img/leftArrow.png,img/leftArrow.png,img/leftArrow.png,42,1,left,nonsocial_task_trials.xlsx,Alone,,,,,,,,,0,0,0,0,0,0,0,0,1,2,6,1,,,,,,,,,,,1.5250501002004007,,,,,,,,,,,,,,,,1,,,,,,,,,,,,,,,,,,,,252.47932699974626,252.68190910015255,252.47932699974626,252.68190910015255,252.47932699974626,252.68190910015255,252.47932699974626,252.68190910015255,252.47932699974626,252.68190910015255,252.47932699974626,252.47932699974626,['1'],[0.5271995002403855],252.47932699974626,252.47932699974626,,,,,,,,,,16003,A,1,1,2022_May_11_1511,flanker-basic_v5,2021.2.3,240.87969238054995,
img/leftArrow.png,img/rightArrow.png,img/rightArrow.png,img/rightArrow.png,img/rightArrow.png,44,0,left,nonsocial_task_trials.xlsx,Alone,,,,,,,,,0,0,0,0,0,0,0,0,1,3,7,3,,,,,,,,,,,1.8987975951903806,,,,,,,,,,,,,,,,1,,,,,,,,,,,,,,,,,,,,254.05122220003977,254.25092299981043,254.05122220003977,254.25092299981043,254.05122220003977,254.25092299981043,254.05122220003977,254.25092299981043,254.05122220003977,254.25092299981043,254.05122220003977,254.05122220003977,['1'],[0.5611362000927329],254.05122220003977,254.05122220003977,,,,,,,,,,16003,A,1,1,2022_May_11_1511,flanker-basic_v5,2021.2.3,240.87969238054995,
img/rightArrow.png,img/rightArrow.png,img/rightArrow.png,img/rightArrow.png,img/rightArrow.png,41,1,right,nonsocial_task_trials.xlsx,Alone,,,,,,,,,0,0,0,0,0,0,0,0,2,0,8,0,,,,,,,,,,,1.591182364729459,,,,,,,,,,,,,,,,1,,,,,,,,,,,,,,,,,,,,255.99553619977087,256.1968882000074,255.99553619977087,256.1968882000074,255.99553619977087,256.1968882000074,255.99553619977087,256.1968882000074,255.99553619977087,256.1968882000074,255.99553619977087,255.99553619977087,['8'],[0.380744700320065],255.99553619977087,255.99553619977087,,,,,,,,,,16003,A,1,1,2022_May_11_1511,flanker-basic_v5,2021.2.3,240.87969238054995,
img/leftArrow.png,img/leftArrow.png,img/leftArrow.png,img/leftArrow.png,img/leftArrow.png,42,1,left,nonsocial_task_trials.xlsx,Alone,,,,,,,,,0,0,0,0,0,0,0,0,2,1,9,1,,,,,,,,,,,1.9869739478957915,,,,,,,,,,,,,,,,1,,,,,,,,,,,,,,,,,,,,257.63786959974095,257.8422856000252,257.63786959974095,257.8422856000252,257.63786959974095,257.8422856000252,257.63786959974095,257.8422856000252,257.63786959974095,257.8422856000252,257.63786959974095,257.63786959974095,['1'],[0.4444706002250314],257.63786959974095,257.63786959974095,,,,,,,,,,16003,A,1,1,2022_May_11_1511,flanker-basic_v5,2021.2.3,240.87969238054995,
img/leftArrow.png,img/rightArrow.png,img/rightArrow.png,img/rightArrow.png,img/rightArrow.png,44,0,left,nonsocial_task_trials.xlsx,Alone,,,,,,,,,0,0,0,0,0,0,0,0,2,2,10,3,,,,,,,,,,,1.501002004008016,,,,,,,,,,,,,,,,1,,,,,,,,,,,,,,,,,,,,259.66947179986164,259.87216369993985,259.66947179986164,259.87216369993985,259.66947179986164,259.87216369993985,259.66947179986164,259.87216369993985,259.66947179986164,259.87216369993985,259.66947179986164,259.66947179986164,['1'],[0.6007484998553991],259.66947179986164,259.66947179986164,,,,,,,,,,16003,A,1,1,2022_May_11_1511,flanker-basic_v5,2021.2.3,240.87969238054995,
img/rightArrow.png,img/leftArrow.png,img/leftArrow.png,img/leftArrow.png,img/leftArrow.png,43,0,right,nonsocial_task_trials.xlsx,Alone,,,,,,,,,0,0,0,0,0,0,0,0,2,3,11,2,,,,,,,,,,,1.6533066132264531,,,,,,,,,,,,,,,,1,,,,,,,,,,,,,,,,,,,,261.21570680011064,261.4161302000284,261.21570680011064,261.4161302000284,261.21570680011064,261.4161302000284,261.21570680011064,261.4161302000284,261.21570680011064,261.4161302000284,261.21570680011064,261.21570680011064,['8'],[0.542800999712199],261.21570680011064,261.21570680011064,,,,,,,,,,16003,A,1,1,2022_May_11_1511,flanker-basic_v5,2021.2.3,240.87969238054995,
img/leftArrow.png,img/leftArrow.png,img/leftArrow.png,img/leftArrow.png,img/leftArrow.png,42,1,left,nonsocial_task_trials.xlsx,Alone,,,,,,,,,0,0,0,0,0,0,0,0,3,0,12,1,,,,,,,,,,,1.5631262525050098,,,,,,,,,,,,,,,,1,,,,,,,,,,,,,,,,,,,,262.9155536997132,263.1221234998666,262.9155536997132,263.1221234998666,262.9155536997132,263.1221234998666,262.9155536997132,263.1221234998666,262.9155536997132,263.1221234998666,262.9155536997132,262.9155536997132,['1'],[0.46272809989750385],262.9155536997132,262.9155536997132,,,,,,,,,,16003,A,1,1,2022_May_11_1511,flanker-basic_v5,2021.2.3,240.87969238054995,
img/rightArrow.png,img/leftArrow.png,img/leftArrow.png,img/leftArrow.png,img/leftArrow.png,43,0,right,nonsocial_task_trials.xlsx,Alone,,,,,,,,,0,0,0,0,0,0,0,0,3,1,13,2,,,,,,,,,,,1.7344689378757514,,,,,,,,,,,,,,,,1,,,,,,,,,,,,,,,,,,,,264.5284787998535,264.7326194001362,264.5284787998535,264.7326194001362,264.5284787998535,264.7326194001362,264.5284787998535,264.7326194001362,264.5284787998535,264.7326194001362,264.5284787998535,264.5284787998535,['8'],[0.5159528995864093],264.5284787998535,264.5284787998535,,,,,,,,,,16003,A,1,1,2022_May_11_1511,flanker-basic_v5,2021.2.3,240.87969238054995,
img/leftArrow.png,img/rightArrow.png,img/rightArrow.png,img/rightArrow.png,img/rightArrow.png,44,0,left,nonsocial_task_trials.xlsx,Alone,,,,,,,,,0,0,0,0,0,0,0,0,3,2,14,3,,,,,,,,,,,1.6693386773547094,,,,,,,,,,,,,,,,1,,,,,,,,,,,,,,,,,,,,266.3075100998394,266.5121941999532,266.3075100998394,266.5121941999532,266.3075100998394,266.5121941999532,266.3075100998394,266.5121941999532,266.3075100998394,266.5121941999532,266.3075100998394,266.3075100998394,['1'],[0.6960044000297785],266.3075100998394,266.3075100998394,,,,,,,,,,16003,A,1,1,2022_May_11_1511,flanker-basic_v5,2021.2.3,240.87969238054995,
img/rightArrow.png,img/rightArrow.png,img/rightArrow.png,img/rightArrow.png,img/rightArrow.png,41,1,right,nonsocial_task_trials.xlsx,Alone,,,,,,,,,0,0,0,0,0,0,0,0,3,3,15,0,,,,,,,,,,,1.7034068136272544,,,,,,,,,,,,,,,,1,,,,,,,,,,,,,,,,,,,,268.0323637998663,268.23601049976423,268.0323637998663,268.23601049976423,268.0323637998663,268.23601049976423,268.0323637998663,268.23601049976423,268.0323637998663,268.23601049976423,268.0323637998663,268.0323637998663,['8'],[0.5619012997485697],268.0323637998663,268.0323637998663,,,,,,,,,,16003,A,1,1,2022_May_11_1511,flanker-basic_v5,2021.2.3,240.87969238054995,
img/leftArrow.png,img/rightArrow.png,img/rightArrow.png,img/rightArrow.png,img/rightArrow.png,44,0,left,nonsocial_task_trials.xlsx,Alone,,,,,,,,,0,0,0,0,0,0,0,0,4,0,16,3,,,,,,,,,,,1.6012024048096192,,,,,,,,,,,,,,,,1,,,,,,,,,,,,,,,,,,,,269.7845360999927,269.9899928998202,269.7845360999927,269.9899928998202,269.7845360999927,269.9899928998202,269.7845360999927,269.9899928998202,269.7845360999927,269.9899928998202,269.7845360999927,269.7845360999927,['1'],[0.4908665996044874],269.7845360999927,269.7845360999927,,,,,,,,,,16003,A,1,1,2022_May_11_1511,flanker-basic_v5,2021.2.3,240.87969238054995,
img/leftArrow.png,img/leftArrow.png,img/leftArrow.png,img/leftArrow.png,img/leftArrow.png,42,1,left,nonsocial_task_trials.xlsx,Alone,,,,,,,,,0,0,0,0,0,0,0,0,4,1,17,1,,,,,,,,,,,1.7354709418837675,,,,,,,,,,,,,,,,1,,,,,,,,,,,,,,,,,,,,271.4330715998076,271.6331950998865,271.4330715998076,271.6331950998865,271.4330715998076,271.6331950998865,271.4330715998076,271.6331950998865,271.4330715998076,271.6331950998865,271.4330715998076,271.4330715998076,['1'],[0.7514419001527131],271.4330715998076,271.4330715998076,,,,,,,,,,16003,A,1,1,2022_May_11_1511,flanker-basic_v5,2021.2.3,240.87969238054995,
img/rightArrow.png,img/rightArrow.png,img/rightArrow.png,img/rightArrow.png,img/rightArrow.png,41,1,right,nonsocial_task_trials.xlsx,Alone,,,,,,,,,0,0,0,0,0,0,0,0,4,2,18,0,,,,,,,,,,,1.6623246492985972,,,,,,,,,,,,,,,,1,,,,,,,,,,,,,,,,,,,,273.219878599979,273.42041169991717,273.219878599979,273.42041169991717,273.219878599979,273.42041169991717,273.219878599979,273.42041169991717,273.219878599979,273.42041169991717,273.219878599979,273.219878599979,['8'],[0.7085377997718751],273.219878599979,273.219878599979,,,,,,,,,,16003,A,1,1,2022_May_11_1511,flanker-basic_v5,2021.2.3,240.87969238054995,
img/rightArrow.png,img/leftArrow.png,img/leftArrow.png,img/leftArrow.png,img/leftArrow.png,43,0,right,nonsocial_task_trials.xlsx,Alone,,,,,,,,,0,0,0,0,0,0,0,0,4,3,19,2,,,,,,,,,,,1.5490981963927857,,,,,,,,,,,,,,,,1,,,,,,,,,,,,,,,,,,,,274.9346223999746,275.1381501997821,274.9346223999746,275.1381501997821,274.9346223999746,275.1381501997821,274.9346223999746,275.1381501997821,274.9346223999746,275.1381501997821,274.9346223999746,274.9346223999746,['8'],[0.632727799937129],274.9346223999746,274.9346223999746,,,,,,,,,,16003,A,1,1,2022_May_11_1511,flanker-basic_v5,2021.2.3,240.87969238054995,
img/leftArrow.png,img/rightArrow.png,img/rightArrow.png,img/rightArrow.png,img/rightArrow.png,44,0,left,nonsocial_task_trials.xlsx,Alone,,,,,,,,,0,0,0,0,0,0,0,0,5,0,20,3,,,,,,,,,,,1.5430861723446894,,,,,,,,,,,,,,,,1,,,,,,,,,,,,,,,,,,,,276.52822830015793,276.7291047000326,276.52822830015793,276.7291047000326,276.52822830015793,276.7291047000326,276.52822830015793,276.7291047000326,276.52822830015793,276.7291047000326,276.52822830015793,276.52822830015793,['1'],[0.7641623001545668],276.52822830015793,276.52822830015793,,,,,,,,,,16003,A,1,1,2022_May_11_1511,flanker-basic_v5,2021.2.3,240.87969238054995,
img/leftArrow.png,img/leftArrow.png,img/leftArrow.png,img/leftArrow.png,img/leftArrow.png,42,1,left,nonsocial_task_trials.xlsx,Alone,,,,,,,,,0,0,0,0,0,0,0,0,5,1,21,1,,,,,,,,,,,1.7695390781563125,,,,,,,,,,,,,,,,1,,,,,,,,,,,,,,,,,,,,278.1200739997439,278.32483850000426,278.1200739997439,278.32483850000426,278.1200739997439,278.32483850000426,278.1200739997439,278.32483850000426,278.1200739997439,278.32483850000426,278.1200739997439,278.1200739997439,['1'],[0.7171559003181756],278.1200739997439,278.1200739997439,,,,,,,,,,16003,A,1,1,2022_May_11_1511,flanker-basic_v5,2021.2.3,240.87969238054995,
img/rightArrow.png,img/rightArrow.png,img/rightArrow.png,img/rightArrow.png,img/rightArrow.png,41,1,right,nonsocial_task_trials.xlsx,Alone,,,,,,,,,0,0,0,0,0,0,0,0,5,2,22,0,,,,,,,,,,,1.628256513026052,,,,,,,,,,,,,,,,1,,,,,,,,,,,,,,,,,,,,279.9471726999618,280.15129690011963,279.9471726999618,280.15129690011963,279.9471726999618,280.15129690011963,279.9471726999618,280.15129690011963,279.9471726999618,280.15129690011963,279.9471726999618,279.9471726999618,['8'],[0.6122873001731932],279.9471726999618,279.9471726999618,,,,,,,,,,16003,A,1,1,2022_May_11_1511,flanker-basic_v5,2021.2.3,240.87969238054995,
img/rightArrow.png,img/leftArrow.png,img/leftArrow.png,img/leftArrow.png,img/leftArrow.png,43,0,right,nonsocial_task_trials.xlsx,Alone,,,,,,,,,0,0,0,0,0,0,0,0,5,3,23,2,,,,,,,,,,,1.9358717434869739,,,,,,,,,,,,,,,,1,,,,,,,,,,,,,,,,,,,,281.6209028000012,281.8225619001314,281.6209028000012,281.8225619001314,281.6209028000012,281.8225619001314,281.6209028000012,281.8225619001314,281.6209028000012,281.8225619001314,281.6209028000012,281.6209028000012,['8'],[0.6332732001319528],281.6209028000012,281.6209028000012,,,,,,,,,,16003,A,1,1,2022_May_11_1511,flanker-basic_v5,2021.2.3,240.87969238054995,
img/leftArrow.png,img/leftArrow.png,img/leftArrow.png,img/leftArrow.png,img/leftArrow.png,42,1,left,nonsocial_task_trials.xlsx,Alone,,,,,,,,,0,0,0,0,0,0,0,0,6,0,24,1,,,,,,,,,,,1.6082164328657313,,,,,,,,,,,,,,,,1,,,,,,,,,,,,,,,,,,,,283.60378130013123,283.80530419992283,283.60378130013123,283.80530419992283,283.60378130013123,283.80530419992283,283.60378130013123,283.80530419992283,283.60378130013123,283.80530419992283,283.60378130013123,283.60378130013123,['1'],[0.6024658996611834],283.60378130013123,283.60378130013123,,,,,,,,,,16003,A,1,1,2022_May_11_1511,flanker-basic_v5,2021.2.3,240.87969238054995,
img/rightArrow.png,img/leftArrow.png,img/leftArrow.png,img/leftArrow.png,img/leftArrow.png,43,0,right,nonsocial_task_trials.xlsx,Alone,,,,,,,,,0,0,0,0,0,0,0,0,6,1,25,2,,,,,,,,,,,1.8376753507014028,,,,,,,,,,,,,,,,1,,,,,,,,,,,,,,,,,,,,285.2646598997526,285.46863170014694,285.2646598997526,285.46863170014694,285.2646598997526,285.46863170014694,285.2646598997526,285.46863170014694,285.2646598997526,285.46863170014694,285.2646598997526,285.2646598997526,['8'],[0.7316715000197291],285.2646598997526,285.2646598997526,,,,,,,,,,16003,A,1,1,2022_May_11_1511,flanker-basic_v5,2021.2.3,240.87969238054995,
img/leftArrow.png,img/rightArrow.png,img/rightArrow.png,img/rightArrow.png,img/rightArrow.png,44,0,left,nonsocial_task_trials.xlsx,Alone,,,,,,,,,0,0,0,0,0,0,0,0,6,2,26,3,,,,,,,,,,,1.5841683366733466,,,,,,,,,,,,,,,,1,,,,,,,,,,,,,,,,,,,,287.15068819979206,287.35370570002124,287.15068819979206,287.35370570002124,287.15068819979206,287.35370570002124,287.15068819979206,287.35370570002124,287.15068819979206,287.35370570002124,287.15068819979206,287.15068819979206,['1'],[0.8854610999114811],287.15068819979206,287.15068819979206,,,,,,,,,,16003,A,1,1,2022_May_11_1511,flanker-basic_v5,2021.2.3,240.87969238054995,
img/rightArrow.png,img/rightArrow.png,img/rightArrow.png,img/rightArrow.png,img/rightArrow.png,41,1,right,nonsocial_task_trials.xlsx,Alone,,,,,,,,,0,0,0,0,0,0,0,0,6,3,27,0,,,,,,,,,,,1.9639278557114228,,,,,,,,,,,,,,,,1,,,,,,,,,,,,,,,,,,,,288.78052609972656,288.9856634000316,288.78052609972656,288.9856634000316,288.78052609972656,288.9856634000316,288.78052609972656,288.9856634000316,288.78052609972656,288.9856634000316,288.78052609972656,288.78052609972656,['8'],[0.6077344003133476],288.78052609972656,288.78052609972656,,,,,,,,,,16003,A,1,1,2022_May_11_1511,flanker-basic_v5,2021.2.3,240.87969238054995,
img/leftArrow.png,img/leftArrow.png,img/leftArrow.png,img/leftArrow.png,img/leftArrow.png,42,1,left,nonsocial_task_trials.xlsx,Alone,,,,,,,,,0,0,0,0,0,0,0,0,7,0,28,1,,,,,,,,,,,1.9238476953907817,,,,,,,,,,,,,,,,1,,,,,,,,,,,,,,,,,,,,290.7838532999158,290.9849089998752,290.7838532999158,290.9849089998752,290.7838532999158,290.9849089998752,290.7838532999158,290.9849089998752,290.7838532999158,290.9849089998752,290.7838532999158,290.7838532999158,['1'],[0.6135510997846723],290.7838532999158,290.7838532999158,,,,,,,,,,16003,A,1,1,2022_May_11_1511,flanker-basic_v5,2021.2.3,240.87969238054995,
img/rightArrow.png,img/rightArrow.png,img/rightArrow.png,img/rightArrow.png,img/rightArrow.png,41,1,right,nonsocial_task_trials.xlsx,Alone,,,,,,,,,0,0,0,0,0,0,0,0,7,1,29,0,,,,,,,,,,,1.6082164328657313,,,,,,,,,,,,,,,,1,,,,,,,,,,,,,,,,,,,,292.7539141997695,292.95809029974043,292.7539141997695,292.95809029974043,292.7539141997695,292.95809029974043,292.7539141997695,292.95809029974043,292.7539141997695,292.95809029974043,292.7539141997695,292.7539141997695,['8'],[0.6573079000227153],292.7539141997695,292.7539141997695,,,,,,,,,,16003,A,1,1,2022_May_11_1511,flanker-basic_v5,2021.2.3,240.87969238054995,
img/leftArrow.png,img/rightArrow.png,img/rightArrow.png,img/rightArrow.png,img/rightArrow.png,44,0,left,nonsocial_task_trials.xlsx,Alone,,,,,,,,,0,0,0,0,0,0,0,0,7,2,30,3,,,,,,,,,,,1.686372745490982,,,,,,,,,,,,,,,,1,,,,,,,,,,,,,,,,,,,,294.4099801997654,294.61064910003915,294.4099801997654,294.61064910003915,294.4099801997654,294.61064910003915,294.4099801997654,294.61064910003915,294.4099801997654,294.61064910003915,294.4099801997654,294.4099801997654,['1'],[0.8800971996970475],294.4099801997654,294.4099801997654,,,,,,,,,,16003,A,1,1,2022_May_11_1511,flanker-basic_v5,2021.2.3,240.87969238054995,
img/rightArrow.png,img/leftArrow.png,img/leftArrow.png,img/leftArrow.png,img/leftArrow.png,43,0,right,nonsocial_task_trials.xlsx,Alone,,,,,,,,,0,0,0,0,0,0,0,0,7,3,31,2,,,,,,,,,,,1.6012024048096192,,,,,,,,,,,,,,,,1,,,,,,,,,,,,,,,,,,,,296.1567778000608,296.3597197998315,296.1567778000608,296.3597197998315,296.1567778000608,296.3597197998315,296.1567778000608,296.3597197998315,296.1567778000608,296.3597197998315,296.1567778000608,296.1567778000608,['8'],[0.9855144000612199],296.1567778000608,296.1567778000608,,,,,,,,,,16003,A,1,1,2022_May_11_1511,flanker-basic_v5,2021.2.3,240.87969238054995,
img/leftArrow.png,img/leftArrow.png,img/leftArrow.png,img/leftArrow.png,img/leftArrow.png,42,1,left,nonsocial_task_trials.xlsx,Alone,,,,,,,,,0,0,0,0,0,0,0,0,8,0,32,1,,,,,,,,,,,1.5531062124248496,,,,,,,,,,,,,,,,1,,,,,,,,,,,,,,,,,,,,297.81105969985947,298.01365600014105,297.81105969985947,298.01365600014105,297.81105969985947,298.01365600014105,297.81105969985947,298.01365600014105,297.81105969985947,298.01365600014105,297.81105969985947,297.81105969985947,['1'],[0.7210913002490997],297.81105969985947,297.81105969985947,,,,,,,,,,16003,A,1,1,2022_May_11_1511,flanker-basic_v5,2021.2.3,240.87969238054995,
img/rightArrow.png,img/leftArrow.png,img/leftArrow.png,img/leftArrow.png,img/leftArrow.png,43,0,right,nonsocial_task_trials.xlsx,Alone,,,,,,,,,0,0,0,0,0,0,0,0,8,1,33,2,,,,,,,,,,,1.7655310621242484,,,,,,,,,,,,,,,,1,,,,,,,,,,,,,,,,,,,,299.41056489991024,299.61381210014224,299.41056489991024,299.61381210014224,299.41056489991024,299.61381210014224,299.41056489991024,299.61381210014224,299.41056489991024,299.61381210014224,299.41056489991024,299.41056489991024,['8'],[0.6437102002091706],299.41056489991024,299.41056489991024,,,,,,,,,,16003,A,1,1,2022_May_11_1511,flanker-basic_v5,2021.2.3,240.87969238054995,
img/leftArrow.png,img/rightArrow.png,img/rightArrow.png,img/rightArrow.png,img/rightArrow.png,44,0,left,nonsocial_task_trials.xlsx,Alone,,,,,,,,,0,0,0,0,0,0,0,0,8,2,34,3,,,,,,,,,,,1.5110220440881763,,,,,,,,,,,,,,,,1,,,,,,,,,,,,,,,,,,,,301.2368128998205,301.4388361000456,301.2368128998205,301.4388361000456,301.2368128998205,301.4388361000456,301.2368128998205,301.4388361000456,301.2368128998205,301.4388361000456,301.2368128998205,301.2368128998205,['1'],[0.7614731998182833],301.2368128998205,301.2368128998205,,,,,,,,,,16003,A,1,1,2022_May_11_1511,flanker-basic_v5,2021.2.3,240.87969238054995,
img/rightArrow.png,img/rightArrow.png,img/rightArrow.png,img/rightArrow.png,img/rightArrow.png,41,1,right,nonsocial_task_trials.xlsx,Alone,,,,,,,,,0,0,0,0,0,0,0,0,8,3,35,0,,,,,,,,,,,1.7104208416833666,,,,,,,,,,,,,,,,1,,,,,,,,,,,,,,,,,,,,302.7953498000279,303.00083169993013,302.7953498000279,303.00083169993013,302.7953498000279,303.00083169993013,302.7953498000279,303.00083169993013,302.7953498000279,303.00083169993013,302.7953498000279,302.7953498000279,['8'],[0.45619239984080195],302.7953498000279,302.7953498000279,,,,,,,,,,16003,A,1,1,2022_May_11_1511,flanker-basic_v5,2021.2.3,240.87969238054995,
img/leftArrow.png,img/rightArrow.png,img/rightArrow.png,img/rightArrow.png,img/rightArrow.png,44,0,left,nonsocial_task_trials.xlsx,Alone,,,,,,,,,0,0,0,0,0,0,0,0,9,0,36,3,,,,,,,,,,,1.8206412825651304,,,,,,,,,,,,,,,,1,,,,,,,,,,,,,,,,,,,,304.5556422001682,304.75796699989587,304.5556422001682,304.75796699989587,304.5556422001682,304.75796699989587,304.5556422001682,304.75796699989587,304.5556422001682,304.75796699989587,304.5556422001682,304.5556422001682,['1'],[0.4787686001509428],304.5556422001682,304.5556422001682,,,,,,,,,,16003,A,1,1,2022_May_11_1511,flanker-basic_v5,2021.2.3,240.87969238054995,
img/rightArrow.png,img/rightArrow.png,img/rightArrow.png,img/rightArrow.png,img/rightArrow.png,41,1,right,nonsocial_task_trials.xlsx,Alone,,,,,,,,,0,0,0,0,0,0,0,0,9,1,37,0,,,,,,,,,,,1.5631262525050098,,,,,,,,,,,,,,,,1,,,,,,,,,,,,,,,,,,,,306.44004260003567,306.6453279000707,306.44004260003567,306.6453279000707,306.44004260003567,306.6453279000707,306.44004260003567,306.6453279000707,306.44004260003567,306.6453279000707,306.44004260003567,306.44004260003567,['8'],[0.5204505999572575],306.44004260003567,306.44004260003567,,,,,,,,,,16003,A,1,1,2022_May_11_1511,flanker-basic_v5,2021.2.3,240.87969238054995,
img/leftArrow.png,img/leftArrow.png,img/leftArrow.png,img/leftArrow.png,img/leftArrow.png,42,1,left,nonsocial_task_trials.xlsx,Alone,,,,,,,,,0,0,0,0,0,0,0,0,9,2,38,1,,,,,,,,,,,1.904809619238477,,,,,,,,,,,,,,,,1,,,,,,,,,,,,,,,,,,,,308.0640755998902,308.2671435000375,308.0640755998902,308.2671435000375,308.0640755998902,308.2671435000375,308.0640755998902,308.2671435000375,308.0640755998902,308.2671435000375,308.0640755998902,308.0640755998902,['1'],[0.580360199790448],308.0640755998902,308.0640755998902,,,,,,,,,,16003,A,1,1,2022_May_11_1511,flanker-basic_v5,2021.2.3,240.87969238054995,
img/rightArrow.png,img/leftArrow.png,img/leftArrow.png,img/leftArrow.png,img/leftArrow.png,43,0,right,nonsocial_task_trials.xlsx,Alone,,,,,,,,,0,0,0,0,0,0,0,0,9,3,39,2,,,,,,,,,,,1.6072144288577153,,,,,,,,,,,,,,,,1,,,,,,,,,,,,,,,,,,,,310.01471129991114,310.2167691998184,310.01471129991114,310.2167691998184,310.01471129991114,310.2167691998184,310.01471129991114,310.2167691998184,310.01471129991114,310.2167691998184,310.01471129991114,310.01471129991114,['8'],[0.7306099999696016],310.01471129991114,310.01471129991114,,,,,,,,,,16003,A,1,1,2022_May_11_1511,flanker-basic_v5,2021.2.3,240.87969238054995,
img/leftArrow.png,img/leftArrow.png,img/leftArrow.png,,,,,,nonsocial_task_trials.xlsx,Alone,,,,,,,,,0,0,0,0,0,0,0,0,,,,,,,,,,,,,,,,,,,,,,,,,,,,,,,,,,,,,,,,,,,,,,,,,,,,,,,,,,,,,,,,,,,2,311.6388159999624,None,8,1.4098816998302937,321.6382019999437,None,,,16003,A,1,1,2022_May_11_1511,flanker-basic_v5,2021.2.3,240.87969238054995,
img/leftArrow.png,img/leftArrow.png,img/leftArrow.png,img/leftArrow.png,img/leftArrow.png,42,1,left,nonsocial_task_trials.xlsx,Alone,,,,,,,,,0,0,0,0,1,0,1,0,0,0,0,1,,,,,,,,,326.5797978998162,None,1.882765531062124,,,,,,,,,,,,,,,,0,,,,,,,,,,,,,,323.06081959977746,None,8,3.502288400195539,323.06081959977746,None,329.6252580997534,329.8279765001498,329.6252580997534,329.8279765001498,329.6252580997534,329.8279765001498,329.6252580997534,329.8279765001498,329.6252580997534,329.8279765001498,329.6252580997534,None,"['8', '1']","[0.49986209999769926, 0.906180499587208]",329.6252580997534,None,,,,,,,,,,16003,A,1,1,2022_May_11_1511,flanker-basic_v5,2021.2.3,240.87969238054995,
img/rightArrow.png,img/leftArrow.png,img/leftArrow.png,img/leftArrow.png,img/leftArrow.png,43,0,right,nonsocial_task_trials.xlsx,Alone,,,,,,,,,0,0,0,0,1,0,1,0,0,1,1,2,,,,,,,,,,,1.8056112224448897,,,,,,,,,,,,,,,,1,,,,,,,,,,,,,,,,,,,,331.5552162998356,331.75720589980483,331.5552162998356,331.75720589980483,331.5552162998356,331.75720589980483,331.5552162998356,331.75720589980483,331.5552162998356,331.75720589980483,331.5552162998356,331.5552162998356,['8'],[0.40389539999887347],331.5552162998356,331.5552162998356,,,,,,,,,,16003,A,1,1,2022_May_11_1511,flanker-basic_v5,2021.2.3,240.87969238054995,
img/rightArrow.png,img/rightArrow.png,img/rightArrow.png,img/rightArrow.png,img/rightArrow.png,41,1,right,nonsocial_task_trials.xlsx,Alone,,,,,,,,,0,0,0,0,1,0,1,0,0,2,2,0,,,,,,,,,,,1.971943887775551,,,,,,,,,,,,,,,,1,,,,,,,,,,,,,,,,,,,,333.41126760002226,333.61395759973675,333.41126760002226,333.61395759973675,333.41126760002226,333.61395759973675,333.41126760002226,333.61395759973675,333.41126760002226,333.61395759973675,333.41126760002226,333.41126760002226,['8'],[0.3701817002147436],333.41126760002226,333.41126760002226,,,,,,,,,,16003,A,1,1,2022_May_11_1511,flanker-basic_v5,2021.2.3,240.87969238054995,
img/leftArrow.png,img/rightArrow.png,img/rightArrow.png,img/rightArrow.png,img/rightArrow.png,44,0,left,nonsocial_task_trials.xlsx,Alone,,,,,,,,,0,0,0,0,1,0,1,0,0,3,3,3,,,,,,,,,,,1.8066132264529058,,,,,,,,,,,,,,,,1,,,,,,,,,,,,,,,,,,,,335.4247022997588,335.6243416001089,335.4247022997588,335.6243416001089,335.4247022997588,335.6243416001089,335.4247022997588,335.6243416001089,335.4247022997588,335.6243416001089,335.4247022997588,335.4247022997588,['1'],[0.37470380030572414],335.4247022997588,335.4247022997588,,,,,,,,,,16003,A,1,1,2022_May_11_1511,flanker-basic_v5,2021.2.3,240.87969238054995,
img/rightArrow.png,img/rightArrow.png,img/rightArrow.png,img/rightArrow.png,img/rightArrow.png,41,1,right,nonsocial_task_trials.xlsx,Alone,,,,,,,,,0,0,0,0,1,0,1,0,1,0,4,0,,,,,,,,,,,1.6392785571142285,,,,,,,,,,,,,,,,1,,,,,,,,,,,,,,,,,,,,337.2786341998726,337.4805995998904,337.2786341998726,337.4805995998904,337.2786341998726,337.4805995998904,337.2786341998726,337.4805995998904,337.2786341998726,337.4805995998904,337.2786341998726,337.2786341998726,['8'],[0.3326924997381866],337.2786341998726,337.2786341998726,,,,,,,,,,16003,A,1,1,2022_May_11_1511,flanker-basic_v5,2021.2.3,240.87969238054995,
img/leftArrow.png,img/leftArrow.png,img/leftArrow.png,img/leftArrow.png,img/leftArrow.png,42,1,left,nonsocial_task_trials.xlsx,Alone,,,,,,,,,0,0,0,0,1,0,1,0,1,1,5,1,,,,,,,,,,,1.814629258517034,,,,,,,,,,,,,,,,1,,,,,,,,,,,,,,,,,,,,338.96738689998165,339.1680382001214,338.96738689998165,339.1680382001214,338.96738689998165,339.1680382001214,338.96738689998165,339.1680382001214,338.96738689998165,339.1680382001214,338.96738689998165,338.96738689998165,['1'],[0.41769570019096136],338.96738689998165,338.96738689998165,,,,,,,,,,16003,A,1,1,2022_May_11_1511,flanker-basic_v5,2021.2.3,240.87969238054995,
img/rightArrow.png,img/leftArrow.png,img/leftArrow.png,img/leftArrow.png,img/leftArrow.png,43,0,right,nonsocial_task_trials.xlsx,Alone,,,,,,,,,0,0,0,0,1,0,1,0,1,2,6,2,,,,,,,,,,,1.7294589178356714,,,,,,,,,,,,,,,,1,,,,,,,,,,,,,,,,,,,,340.83722430001944,341.0400537000969,340.83722430001944,341.0400537000969,340.83722430001944,341.0400537000969,340.83722430001944,341.0400537000969,340.83722430001944,341.0400537000969,340.83722430001944,340.83722430001944,['8'],[0.41530440002679825],340.83722430001944,340.83722430001944,,,,,,,,,,16003,A,1,1,2022_May_11_1511,flanker-basic_v5,2021.2.3,240.87969238054995,
img/leftArrow.png,img/rightArrow.png,img/rightArrow.png,img/rightArrow.png,img/rightArrow.png,44,0,left,nonsocial_task_trials.xlsx,Alone,,,,,,,,,0,0,0,0,1,0,1,0,1,3,7,3,,,,,,,,,,,1.5190380761523048,,,,,,,,,,,,,,,,1,,,,,,,,,,,,,,,,,,,,342.6113398997113,342.81338519975543,342.6113398997113,342.81338519975543,342.6113398997113,342.81338519975543,342.6113398997113,342.81338519975543,342.6113398997113,342.81338519975543,342.6113398997113,342.6113398997113,['1'],[0.4567440003156662],342.6113398997113,342.6113398997113,,,,,,,,,,16003,A,1,1,2022_May_11_1511,flanker-basic_v5,2021.2.3,240.87969238054995,
img/leftArrow.png,img/rightArrow.png,img/rightArrow.png,img/rightArrow.png,img/rightArrow.png,44,0,left,nonsocial_task_trials.xlsx,Alone,,,,,,,,,0,0,0,0,1,0,1,0,2,0,8,3,,,,,,,,,,,1.5440881763527055,,,,,,,,,,,,,,,,1,,,,,,,,,,,,,,,,,,,,344.18007949972525,344.3804680998437,344.18007949972525,344.3804680998437,344.18007949972525,344.3804680998437,344.18007949972525,344.3804680998437,344.18007949972525,344.3804680998437,344.18007949972525,344.18007949972525,['1'],[0.5024025999009609],344.18007949972525,344.18007949972525,,,,,,,,,,16003,A,1,1,2022_May_11_1511,flanker-basic_v5,2021.2.3,240.87969238054995,
img/leftArrow.png,img/leftArrow.png,img/leftArrow.png,img/leftArrow.png,img/leftArrow.png,42,1,left,nonsocial_task_trials.xlsx,Alone,,,,,,,,,0,0,0,0,1,0,1,0,2,1,9,1,,,,,,,,,,,1.8977955911823647,,,,,,,,,,,,,,,,1,,,,,,,,,,,,,,,,,,,,345.7781175998971,345.9807080999017,345.7781175998971,345.9807080999017,345.7781175998971,345.9807080999017,345.7781175998971,345.9807080999017,345.7781175998971,345.9807080999017,345.7781175998971,345.7781175998971,['1'],[0.47242909995839],345.7781175998971,345.7781175998971,,,,,,,,,,16003,A,1,1,2022_May_11_1511,flanker-basic_v5,2021.2.3,240.87969238054995,
img/rightArrow.png,img/rightArrow.png,img/rightArrow.png,img/rightArrow.png,img/rightArrow.png,41,1,right,nonsocial_task_trials.xlsx,Alone,,,,,,,,,0,0,0,0,1,0,1,0,2,2,10,0,,,,,,,,,,,1.5501002004008018,,,,,,,,,,,,,,,,1,,,,,,,,,,,,,,,,,,,,347.7233965997584,347.92516289977357,347.7233965997584,347.92516289977357,347.7233965997584,347.92516289977357,347.7233965997584,347.92516289977357,347.7233965997584,347.92516289977357,347.7233965997584,347.7233965997584,['8'],[0.29687250033020973],347.7233965997584,347.7233965997584,,,,,,,,,,16003,A,1,1,2022_May_11_1511,flanker-basic_v5,2021.2.3,240.87969238054995,
img/rightArrow.png,img/leftArrow.png,img/leftArrow.png,img/leftArrow.png,img/leftArrow.png,43,0,right,nonsocial_task_trials.xlsx,Alone,,,,,,,,,0,0,0,0,1,0,1,0,2,3,11,2,,,,,,,,,,,1.8997995991983967,,,,,,,,,,,,,,,,1,,,,,,,,,,,,,,,,,,,,349.31878169998527,349.52106679975986,349.31878169998527,349.52106679975986,349.31878169998527,349.52106679975986,349.31878169998527,349.52106679975986,349.31878169998527,349.52106679975986,349.31878169998527,349.31878169998527,['8'],[0.48933809995651245],349.31878169998527,349.31878169998527,,,,,,,,,,16003,A,1,1,2022_May_11_1511,flanker-basic_v5,2021.2.3,240.87969238054995,
img/rightArrow.png,img/leftArrow.png,img/leftArrow.png,img/leftArrow.png,img/leftArrow.png,43,0,right,nonsocial_task_trials.xlsx,Alone,,,,,,,,,0,0,0,0,1,0,1,0,3,0,12,2,,,,,,,,,,,1.6132264529058116,,,,,,,,,,,,,,,,1,,,,,,,,,,,,,,,,,,,,351.2680096998811,351.4711448000744,351.2680096998811,351.4711448000744,351.2680096998811,351.4711448000744,351.2680096998811,351.4711448000744,351.2680096998811,351.4711448000744,351.2680096998811,351.2680096998811,['8'],[0.6615271000191569],351.2680096998811,351.2680096998811,,,,,,,,,,16003,A,1,1,2022_May_11_1511,flanker-basic_v5,2021.2.3,240.87969238054995,
img/leftArrow.png,img/rightArrow.png,img/rightArrow.png,img/rightArrow.png,img/rightArrow.png,44,0,left,nonsocial_task_trials.xlsx,Alone,,,,,,,,,0,0,0,0,1,0,1,0,3,1,13,3,,,,,,,,,,,1.874749498997996,,,,,,,,,,,,,,,,1,,,,,,,,,,,,,,,,,,,,352.9295712001622,353.1299314000644,352.9295712001622,353.1299314000644,352.9295712001622,353.1299314000644,352.9295712001622,353.1299314000644,352.9295712001622,353.1299314000644,352.9295712001622,352.9295712001622,['1'],[0.47578890016302466],352.9295712001622,352.9295712001622,,,,,,,,,,16003,A,1,1,2022_May_11_1511,flanker-basic_v5,2021.2.3,240.87969238054995,
img/rightArrow.png,img/rightArrow.png,img/rightArrow.png,img/rightArrow.png,img/rightArrow.png,41,1,right,nonsocial_task_trials.xlsx,Alone,,,,,,,,,0,0,0,0,1,0,1,0,3,2,14,0,,,,,,,,,,,1.5190380761523048,,,,,,,,,,,,,,,,1,,,,,,,,,,,,,,,,,,,,354.85306710004807,355.0575882997364,354.85306710004807,355.0575882997364,354.85306710004807,355.0575882997364,354.85306710004807,355.0575882997364,354.85306710004807,355.0575882997364,354.85306710004807,354.85306710004807,['8'],[0.47811520006507635],354.85306710004807,354.85306710004807,,,,,,,,,,16003,A,1,1,2022_May_11_1511,flanker-basic_v5,2021.2.3,240.87969238054995,
img/leftArrow.png,img/leftArrow.png,img/leftArrow.png,img/leftArrow.png,img/leftArrow.png,42,1,left,nonsocial_task_trials.xlsx,Alone,,,,,,,,,0,0,0,0,1,0,1,0,3,3,15,1,,,,,,,,,,,1.7344689378757514,,,,,,,,,,,,,,,,1,,,,,,,,,,,,,,,,,,,,356.40859699994326,356.6122733000666,356.40859699994326,356.6122733000666,356.40859699994326,356.6122733000666,356.40859699994326,356.6122733000666,356.40859699994326,356.6122733000666,356.40859699994326,356.40859699994326,['1'],[0.44003630010411143],356.40859699994326,356.40859699994326,,,,,,,,,,16003,A,1,1,2022_May_11_1511,flanker-basic_v5,2021.2.3,240.87969238054995,
img/rightArrow.png,img/leftArrow.png,img/leftArrow.png,img/leftArrow.png,img/leftArrow.png,43,0,right,nonsocial_task_trials.xlsx,Alone,,,,,,,,,0,0,0,0,1,0,1,0,4,0,16,2,,,,,,,,,,,1.62625250501002,,,,,,,,,,,,,,,,1,,,,,,,,,,,,,,,,,,,,358.18514550011605,358.3885896001011,358.18514550011605,358.3885896001011,358.18514550011605,358.3885896001011,358.18514550011605,358.3885896001011,358.18514550011605,358.3885896001011,358.18514550011605,358.18514550011605,['8'],[0.4332031002268195],358.18514550011605,358.18514550011605,,,,,,,,,,16003,A,1,1,2022_May_11_1511,flanker-basic_v5,2021.2.3,240.87969238054995,
img/leftArrow.png,img/rightArrow.png,img/rightArrow.png,img/rightArrow.png,img/rightArrow.png,44,0,left,nonsocial_task_trials.xlsx,Alone,,,,,,,,,0,0,0,0,1,0,1,0,4,1,17,3,,,,,,,,,,,1.8797595190380763,,,,,,,,,,,,,,,,1,,,,,,,,,,,,,,,,,,,,359.85540550015867,360.0569998999126,359.85540550015867,360.0569998999126,359.85540550015867,360.0569998999126,359.85540550015867,360.0569998999126,359.85540550015867,360.0569998999126,359.85540550015867,359.85540550015867,['1'],[0.4908775999210775],359.85540550015867,359.85540550015867,,,,,,,,,,16003,A,1,1,2022_May_11_1511,flanker-basic_v5,2021.2.3,240.87969238054995,
img/rightArrow.png,img/rightArrow.png,img/rightArrow.png,img/rightArrow.png,img/rightArrow.png,41,1,right,nonsocial_task_trials.xlsx,Alone,,,,,,,,,0,0,0,0,1,0,1,0,4,2,18,0,,,,,,,,,,,1.9148296593186374,,,,,,,,,,,,,,,,1,,,,,,,,,,,,,,,,,,,,361.784016800113,361.9868135997094,361.784016800113,361.9868135997094,361.784016800113,361.9868135997094,361.784016800113,361.9868135997094,361.784016800113,361.9868135997094,361.784016800113,361.784016800113,['8'],[0.36968399956822395],361.784016800113,361.784016800113,,,,,,,,,,16003,A,1,1,2022_May_11_1511,flanker-basic_v5,2021.2.3,240.87969238054995,
img/leftArrow.png,img/leftArrow.png,img/leftArrow.png,img/leftArrow.png,img/leftArrow.png,42,1,left,nonsocial_task_trials.xlsx,Alone,,,,,,,,,0,0,0,0,1,0,1,0,4,3,19,1,,,,,,,,,,,1.7444889779559118,,,,,,,,,,,,,,,,1,,,,,,,,,,,,,,,,,,,,363.7511700997129,363.95177169982344,363.7511700997129,363.95177169982344,363.7511700997129,363.95177169982344,363.7511700997129,363.95177169982344,363.7511700997129,363.95177169982344,363.7511700997129,363.7511700997129,['1'],[0.42719689989462495],363.7511700997129,363.7511700997129,,,,,,,,,,16003,A,1,1,2022_May_11_1511,flanker-basic_v5,2021.2.3,240.87969238054995,
img/rightArrow.png,img/leftArrow.png,img/leftArrow.png,img/leftArrow.png,img/leftArrow.png,43,0,right,nonsocial_task_trials.xlsx,Alone,,,,,,,,,0,0,0,0,1,0,1,0,5,0,20,2,,,,,,,,,,,1.973947895791583,,,,,,,,,,,,,,,,1,,,,,,,,,,,,,,,,,,,,365.5439025997184,365.74532489990816,365.5439025997184,365.74532489990816,365.5439025997184,365.74532489990816,365.5439025997184,365.74532489990816,365.5439025997184,365.74532489990816,365.5439025997184,365.5439025997184,['8'],[0.5295774000696838],365.5439025997184,365.5439025997184,,,,,,,,,,16003,A,1,1,2022_May_11_1511,flanker-basic_v5,2021.2.3,240.87969238054995,
img/leftArrow.png,img/rightArrow.png,img/rightArrow.png,img/rightArrow.png,img/rightArrow.png,44,0,left,nonsocial_task_trials.xlsx,Alone,,,,,,,,,0,0,0,0,1,0,1,0,5,1,21,3,,,,,,,,,,,1.8587174348697395,,,,,,,,,,,,,,,,1,,,,,,,,,,,,,,,,,,,,367.56975609995425,367.77188610006124,367.56975609995425,367.77188610006124,367.56975609995425,367.77188610006124,367.56975609995425,367.77188610006124,367.56975609995425,367.77188610006124,367.56975609995425,367.56975609995425,['1'],[0.5597942001186311],367.56975609995425,367.56975609995425,,,,,,,,,,16003,A,1,1,2022_May_11_1511,flanker-basic_v5,2021.2.3,240.87969238054995,
img/rightArrow.png,img/rightArrow.png,img/rightArrow.png,img/rightArrow.png,img/rightArrow.png,41,1,right,nonsocial_task_trials.xlsx,Alone,,,,,,,,,0,0,0,0,1,0,1,0,5,2,22,0,,,,,,,,,,,1.842685370741483,,,,,,,,,,,,,,,,1,,,,,,,,,,,,,,,,,,,,369.4749380000867,369.67613920010626,369.4749380000867,369.67613920010626,369.4749380000867,369.67613920010626,369.4749380000867,369.67613920010626,369.4749380000867,369.67613920010626,369.4749380000867,369.4749380000867,['8'],[0.4614550997503102],369.4749380000867,369.4749380000867,,,,,,,,,,16003,A,1,1,2022_May_11_1511,flanker-basic_v5,2021.2.3,240.87969238054995,
img/leftArrow.png,img/leftArrow.png,img/leftArrow.png,img/leftArrow.png,img/leftArrow.png,42,1,left,nonsocial_task_trials.xlsx,Alone,,,,,,,,,0,0,0,0,1,0,1,0,5,3,23,1,,,,,,,,,,,1.5921843687374748,,,,,,,,,,,,,,,,1,,,,,,,,,,,,,,,,,,,,371.36975179985166,371.57164319977164,371.36975179985166,371.57164319977164,371.36975179985166,371.57164319977164,371.36975179985166,371.57164319977164,371.36975179985166,371.57164319977164,371.36975179985166,371.36975179985166,['1'],[0.5034174998290837],371.36975179985166,371.36975179985166,,,,,,,,,,16003,A,1,1,2022_May_11_1511,flanker-basic_v5,2021.2.3,240.87969238054995,
img/rightArrow.png,img/leftArrow.png,img/leftArrow.png,img/leftArrow.png,img/leftArrow.png,43,0,right,nonsocial_task_trials.xlsx,Alone,,,,,,,,,0,0,0,0,1,0,1,0,6,0,24,2,,,,,,,,,,,1.6663326653306612,,,,,,,,,,,,,,,,1,,,,,,,,,,,,,,,,,,,,373.0084755998105,373.21033270005137,373.0084755998105,373.21033270005137,373.0084755998105,373.21033270005137,373.0084755998105,373.21033270005137,373.0084755998105,373.21033270005137,373.0084755998105,373.0084755998105,['8'],[0.5696513000875711],373.0084755998105,373.0084755998105,,,,,,,,,,16003,A,1,1,2022_May_11_1511,flanker-basic_v5,2021.2.3,240.87969238054995,
img/leftArrow.png,img/leftArrow.png,img/leftArrow.png,img/leftArrow.png,img/leftArrow.png,42,1,left,nonsocial_task_trials.xlsx,Alone,,,,,,,,,0,0,0,0,1,0,1,0,6,1,25,1,,,,,,,,,,,1.8096192384769538,,,,,,,,,,,,,,,,1,,,,,,,,,,,,,,,,,,,,374.72850230010226,374.92989039979875,374.72850230010226,374.92989039979875,374.72850230010226,374.92989039979875,374.72850230010226,374.92989039979875,374.72850230010226,374.92989039979875,374.72850230010226,374.72850230010226,['1'],[0.48562199994921684],374.72850230010226,374.72850230010226,,,,,,,,,,16003,A,1,1,2022_May_11_1511,flanker-basic_v5,2021.2.3,240.87969238054995,
img/rightArrow.png,img/rightArrow.png,img/rightArrow.png,img/rightArrow.png,img/rightArrow.png,41,1,right,nonsocial_task_trials.xlsx,Alone,,,,,,,,,0,0,0,0,1,0,1,0,6,2,26,0,,,,,,,,,,,1.6983967935871742,,,,,,,,,,,,,,,,1,,,,,,,,,,,,,,,,,,,,376.586190499831,376.78879150003195,376.586190499831,376.78879150003195,376.586190499831,376.78879150003195,376.586190499831,376.78879150003195,376.586190499831,376.78879150003195,376.586190499831,376.586190499831,['8'],[0.40613859985023737],376.586190499831,376.586190499831,,,,,,,,,,16003,A,1,1,2022_May_11_1511,flanker-basic_v5,2021.2.3,240.87969238054995,
img/leftArrow.png,img/rightArrow.png,img/rightArrow.png,img/rightArrow.png,img/rightArrow.png,44,0,left,nonsocial_task_trials.xlsx,Alone,,,,,,,,,0,0,0,0,1,0,1,0,6,3,27,3,,,,,,,,,,,1.5651302605210422,,,,,,,,,,,,,,,,1,,,,,,,,,,,,,,,,,,,,378.32857629982755,378.53135329997167,378.32857629982755,378.53135329997167,378.32857629982755,378.53135329997167,378.32857629982755,378.53135329997167,378.32857629982755,378.53135329997167,378.32857629982755,378.32857629982755,['1'],[0.36082669999450445],378.32857629982755,378.32857629982755,,,,,,,,,,16003,A,1,1,2022_May_11_1511,flanker-basic_v5,2021.2.3,240.87969238054995,
img/rightArrow.png,img/rightArrow.png,img/rightArrow.png,img/rightArrow.png,img/rightArrow.png,41,1,right,nonsocial_task_trials.xlsx,Alone,,,,,,,,,0,0,0,0,1,0,1,0,7,0,28,0,,,,,,,,,,,1.844689378757515,,,,,,,,,,,,,,,,1,,,,,,,,,,,,,,,,,,,,379.9392766999081,380.1398303997703,379.9392766999081,380.1398303997703,379.9392766999081,380.1398303997703,379.9392766999081,380.1398303997703,379.9392766999081,380.1398303997703,379.9392766999081,379.9392766999081,['8'],[0.4159075999632478],379.9392766999081,379.9392766999081,,,,,,,,,,16003,A,1,1,2022_May_11_1511,flanker-basic_v5,2021.2.3,240.87969238054995,
img/leftArrow.png,img/rightArrow.png,img/rightArrow.png,img/rightArrow.png,img/rightArrow.png,44,0,left,nonsocial_task_trials.xlsx,Alone,,,,,,,,,0,0,0,0,1,0,1,0,7,1,29,3,,,,,,,,,,,1.8807615230460921,,,,,,,,,,,,,,,,1,,,,,,,,,,,,,,,,,,,,381.8336525000632,382.03623710013926,381.8336525000632,382.03623710013926,381.8336525000632,382.03623710013926,381.8336525000632,382.03623710013926,381.8336525000632,382.03623710013926,381.8336525000632,381.8336525000632,['1'],[0.5546031999401748],381.8336525000632,381.8336525000632,,,,,,,,,,16003,A,1,1,2022_May_11_1511,flanker-basic_v5,2021.2.3,240.87969238054995,
img/leftArrow.png,img/leftArrow.png,img/leftArrow.png,img/leftArrow.png,img/leftArrow.png,42,1,left,nonsocial_task_trials.xlsx,Alone,,,,,,,,,0,0,0,0,1,0,1,0,7,2,30,1,,,,,,,,,,,1.7034068136272544,,,,,,,,,,,,,,,,1,,,,,,,,,,,,,,,,,,,,383.76419609971344,383.96620659995824,383.76419609971344,383.96620659995824,383.76419609971344,383.96620659995824,383.76419609971344,383.96620659995824,383.76419609971344,383.96620659995824,383.76419609971344,383.76419609971344,['1'],[0.5030958000570536],383.76419609971344,383.76419609971344,,,,,,,,,,16003,A,1,1,2022_May_11_1511,flanker-basic_v5,2021.2.3,240.87969238054995,
img/rightArrow.png,img/leftArrow.png,img/leftArrow.png,img/leftArrow.png,img/leftArrow.png,43,0,right,nonsocial_task_trials.xlsx,Alone,,,,,,,,,0,0,0,0,1,0,1,0,7,3,31,2,,,,,,,,,,,1.6272545090180361,,,,,,,,,,,,,,,,1,,,,,,,,,,,,,,,,,,,,385.51663829991594,385.7162143997848,385.51663829991594,385.7162143997848,385.51663829991594,385.7162143997848,385.51663829991594,385.7162143997848,385.51663829991594,385.7162143997848,385.51663829991594,385.51663829991594,['8'],[0.4435405000112951],385.51663829991594,385.51663829991594,,,,,,,,,,16003,A,1,1,2022_May_11_1511,flanker-basic_v5,2021.2.3,240.87969238054995,
img/rightArrow.png,img/rightArrow.png,img/rightArrow.png,img/rightArrow.png,img/rightArrow.png,41,1,right,nonsocial_task_trials.xlsx,Alone,,,,,,,,,0,0,0,0,1,0,1,0,8,0,32,0,,,,,,,,,,,1.8066132264529058,,,,,,,,,,,,,,,,1,,,,,,,,,,,,,,,,,,,,387.191597300116,387.3953264998272,387.191597300116,387.3953264998272,387.191597300116,387.3953264998272,387.191597300116,387.3953264998272,387.191597300116,387.3953264998272,387.191597300116,387.191597300116,['8'],[0.4225277998484671],387.191597300116,387.191597300116,,,,,,,,,,16003,A,1,1,2022_May_11_1511,flanker-basic_v5,2021.2.3,240.87969238054995,
img/leftArrow.png,img/rightArrow.png,img/rightArrow.png,img/rightArrow.png,img/rightArrow.png,44,0,left,nonsocial_task_trials.xlsx,Alone,,,,,,,,,0,0,0,0,1,0,1,0,8,1,33,3,,,,,,,,,,,1.7224448897795592,,,,,,,,,,,,,,,,1,,,,,,,,,,,,,,,,,,,,389.04503579996526,389.24875399982557,389.04503579996526,389.24875399982557,389.04503579996526,389.24875399982557,389.04503579996526,389.24875399982557,389.04503579996526,389.24875399982557,389.04503579996526,389.04503579996526,['1'],[0.4452586998231709],389.04503579996526,389.04503579996526,,,,,,,,,,16003,A,1,1,2022_May_11_1511,flanker-basic_v5,2021.2.3,240.87969238054995,
img/rightArrow.png,img/leftArrow.png,img/leftArrow.png,img/leftArrow.png,img/leftArrow.png,43,0,right,nonsocial_task_trials.xlsx,Alone,,,,,,,,,0,0,0,0,1,0,1,0,8,2,34,2,,,,,,,,,,,1.8857715430861721,,,,,,,,,,,,,,,,1,,,,,,,,,,,,,,,,,,,,390.81969869975,391.02122240001336,390.81969869975,391.02122240001336,390.81969869975,391.02122240001336,390.81969869975,391.02122240001336,390.81969869975,391.02122240001336,390.81969869975,390.81969869975,['8'],[0.46851419983431697],390.81969869975,390.81969869975,,,,,,,,,,16003,A,1,1,2022_May_11_1511,flanker-basic_v5,2021.2.3,240.87969238054995,
img/leftArrow.png,img/leftArrow.png,img/leftArrow.png,img/leftArrow.png,img/leftArrow.png,42,1,left,nonsocial_task_trials.xlsx,Alone,,,,,,,,,0,0,0,0,1,0,1,0,8,3,35,1,,,,,,,,,,,1.7575150300601203,,,,,,,,,,,,,,,,1,,,,,,,,,,,,,,,,,,,,392.7525009997189,392.95545940008014,392.7525009997189,392.95545940008014,392.7525009997189,392.95545940008014,392.7525009997189,392.95545940008014,392.7525009997189,392.95545940008014,392.7525009997189,392.7525009997189,['1'],[0.4268125002272427],392.7525009997189,392.7525009997189,,,,,,,,,,16003,A,1,1,2022_May_11_1511,flanker-basic_v5,2021.2.3,240.87969238054995,
img/leftArrow.png,img/leftArrow.png,img/leftArrow.png,img/leftArrow.png,img/leftArrow.png,42,1,left,nonsocial_task_trials.xlsx,Alone,,,,,,,,,0,0,0,0,1,0,1,0,9,0,36,1,,,,,,,,,,,1.7274549098196392,,,,,,,,,,,,,,,,1,,,,,,,,,,,,,,,,,,,,394.5581853999756,394.7603564998135,394.5581853999756,394.7603564998135,394.5581853999756,394.7603564998135,394.5581853999756,394.7603564998135,394.5581853999756,394.7603564998135,394.5581853999756,394.5581853999756,['1'],[0.466905300039798],394.5581853999756,394.5581853999756,,,,,,,,,,16003,A,1,1,2022_May_11_1511,flanker-basic_v5,2021.2.3,240.87969238054995,
img/rightArrow.png,img/leftArrow.png,img/leftArrow.png,img/leftArrow.png,img/leftArrow.png,43,0,right,nonsocial_task_trials.xlsx,Alone,,,,,,,,,0,0,0,0,1,0,1,0,9,1,37,2,,,,,,,,,,,1.7334669338677353,,,,,,,,,,,,,,,,1,,,,,,,,,,,,,,,,,,,,396.341435899958,396.5430062999949,396.341435899958,396.5430062999949,396.341435899958,396.5430062999949,396.341435899958,396.5430062999949,396.341435899958,396.5430062999949,396.341435899958,396.341435899958,['8'],[0.43162550032138824],396.341435899958,396.341435899958,,,,,,,,,,16003,A,1,1,2022_May_11_1511,flanker-basic_v5,2021.2.3,240.87969238054995,
img/rightArrow.png,img/rightArrow.png,img/rightArrow.png,img/rightArrow.png,img/rightArrow.png,41,1,right,nonsocial_task_trials.xlsx,Alone,,,,,,,,,0,0,0,0,1,0,1,0,9,2,38,0,,,,,,,,,,,1.840681362725451,,,,,,,,,,,,,,,,1,,,,,,,,,,,,,,,,,,,,398.12120639998466,398.3247114997357,398.12120639998466,398.3247114997357,398.12120639998466,398.3247114997357,398.12120639998466,398.3247114997357,398.12120639998466,398.3247114997357,398.12120639998466,398.12120639998466,['8'],[0.47381799994036555],398.12120639998466,398.12120639998466,,,,,,,,,,16003,A,1,1,2022_May_11_1511,flanker-basic_v5,2021.2.3,240.87969238054995,
img/leftArrow.png,img/rightArrow.png,img/rightArrow.png,img/rightArrow.png,img/rightArrow.png,44,0,left,nonsocial_task_trials.xlsx,Alone,,,,,,,,,0,0,0,0,1,0,1,0,9,3,39,3,,,,,,,,,,,1.501002004008016,,,,,,,,,,,,,,,,1,,,,,,,,,,,,,,,,,,,,400.00989180011675,400.2150933998637,400.00989180011675,400.2150933998637,400.00989180011675,400.2150933998637,400.00989180011675,400.2150933998637,400.00989180011675,400.2150933998637,400.00989180011675,400.00989180011675,['1'],[0.5144436997361481],400.00989180011675,400.00989180011675,,,,,,,,,,16003,A,1,1,2022_May_11_1511,flanker-basic_v5,2021.2.3,240.87969238054995,
img/leftArrow.png,img/leftArrow.png,img/leftArrow.png,,,,,,nonsocial_task_trials.xlsx,Alone,,,,,,,,,0,0,0,0,1,0,1,0,,,,,,,,,,,,,,,,,,,,,,,,,,,,,,,,,,,,,,,,,,,,,,,,,,,,,,,,,,,,,,,,,,,2,401.52132930001244,None,8,0.6568672000430524,411.5192402000539,None,,,16003,A,1,1,2022_May_11_1511,flanker-basic_v5,2021.2.3,240.87969238054995,
img/rightArrow.png,img/leftArrow.png,img/leftArrow.png,img/leftArrow.png,img/leftArrow.png,43,0,right,nonsocial_task_trials.xlsx,Alone,,,,,,,,,0,0,0,0,2,0,2,0,0,0,0,2,,,,,,,,,414.65085279988125,None,1.9468937875751504,,,,,,,,,,,,,,,,1,,,,,,,,,,,,,,412.19420829974115,None,8,2.440317800268531,412.19420829974115,None,417.70445929979905,417.9087418001145,417.70445929979905,417.9087418001145,417.70445929979905,417.9087418001145,417.70445929979905,417.9087418001145,417.70445929979905,417.9087418001145,417.70445929979905,None,['8'],[0.6796058001928031],417.70445929979905,None,,,,,,,,,,16003,A,1,1,2022_May_11_1511,flanker-basic_v5,2021.2.3,240.87969238054995,
img/leftArrow.png,img/rightArrow.png,img/rightArrow.png,img/rightArrow.png,img/rightArrow.png,44,0,left,nonsocial_task_trials.xlsx,Alone,,,,,,,,,0,0,0,0,2,0,2,0,0,1,1,3,,,,,,,,,,,1.5060120240480963,,,,,,,,,,,,,,,,1,,,,,,,,,,,,,,,,,,,,419.69552369974554,419.9008766999468,419.69552369974554,419.9008766999468,419.69552369974554,419.9008766999468,419.69552369974554,419.9008766999468,419.69552369974554,419.9008766999468,419.69552369974554,419.69552369974554,['1'],[0.3895116001367569],419.69552369974554,419.69552369974554,,,,,,,,,,16003,A,1,1,2022_May_11_1511,flanker-basic_v5,2021.2.3,240.87969238054995,
img/leftArrow.png,img/leftArrow.png,img/leftArrow.png,img/leftArrow.png,img/leftArrow.png,42,1,left,nonsocial_task_trials.xlsx,Alone,,,,,,,,,0,0,0,0,2,0,2,0,0,2,2,1,,,,,,,,,,,1.8567134268537075,,,,,,,,,,,,,,,,1,,,,,,,,,,,,,,,,,,,,421.24997500004247,421.4504411998205,421.24997500004247,421.4504411998205,421.24997500004247,421.4504411998205,421.24997500004247,421.4504411998205,421.24997500004247,421.4504411998205,421.24997500004247,421.24997500004247,['1'],[0.42506170039996505],421.24997500004247,421.24997500004247,,,,,,,,,,16003,A,1,1,2022_May_11_1511,flanker-basic_v5,2021.2.3,240.87969238054995,
img/rightArrow.png,img/rightArrow.png,img/rightArrow.png,img/rightArrow.png,img/rightArrow.png,41,1,right,nonsocial_task_trials.xlsx,Alone,,,,,,,,,0,0,0,0,2,0,2,0,0,3,3,0,,,,,,,,,,,1.6523046092184368,,,,,,,,,,,,,,,,1,,,,,,,,,,,,,,,,,,,,423.1558038997464,423.35740049974993,423.1558038997464,423.35740049974993,423.1558038997464,423.35740049974993,423.1558038997464,423.35740049974993,423.1558038997464,423.35740049974993,423.1558038997464,423.1558038997464,['8'],[0.3924909997731447],423.1558038997464,423.1558038997464,,,,,,,,,,16003,A,1,1,2022_May_11_1511,flanker-basic_v5,2021.2.3,240.87969238054995,
img/leftArrow.png,img/leftArrow.png,img/leftArrow.png,img/leftArrow.png,img/leftArrow.png,42,1,left,nonsocial_task_trials.xlsx,Alone,,,,,,,,,0,0,0,0,2,0,2,0,1,0,4,1,,,,,,,,,,,1.9959919839679359,,,,,,,,,,,,,,,,1,,,,,,,,,,,,,,,,,,,,424.85394289996475,425.05483639985323,424.85394289996475,425.05483639985323,424.85394289996475,425.05483639985323,424.85394289996475,425.05483639985323,424.85394289996475,425.05483639985323,424.85394289996475,424.85394289996475,['1'],[0.30133309960365295],424.85394289996475,424.85394289996475,,,,,,,,,,16003,A,1,1,2022_May_11_1511,flanker-basic_v5,2021.2.3,240.87969238054995,
img/leftArrow.png,img/rightArrow.png,img/rightArrow.png,img/rightArrow.png,img/rightArrow.png,44,0,left,nonsocial_task_trials.xlsx,Alone,,,,,,,,,0,0,0,0,2,0,2,0,1,1,5,3,,,,,,,,,,,1.9939879759519037,,,,,,,,,,,,,,,,1,,,,,,,,,,,,,,,,,,,,426.8975486997515,427.1021210998297,426.8975486997515,427.1021210998297,426.8975486997515,427.1021210998297,426.8975486997515,427.1021210998297,426.8975486997515,427.1021210998297,426.8975486997515,426.8975486997515,['1'],[0.40281140012666583],426.8975486997515,426.8975486997515,,,,,,,,,,16003,A,1,1,2022_May_11_1511,flanker-basic_v5,2021.2.3,240.87969238054995,
img/rightArrow.png,img/leftArrow.png,img/leftArrow.png,img/leftArrow.png,img/leftArrow.png,43,0,right,nonsocial_task_trials.xlsx,Alone,,,,,,,,,0,0,0,0,2,0,2,0,1,2,6,2,,,,,,,,,,,1.904809619238477,,,,,,,,,,,,,,,,1,,,,,,,,,,,,,,,,,,,,428.93496019998565,429.13754600007087,428.93496019998565,429.13754600007087,428.93496019998565,429.13754600007087,428.93496019998565,429.13754600007087,428.93496019998565,429.13754600007087,428.93496019998565,428.93496019998565,['8'],[0.4163275002501905],428.93496019998565,428.93496019998565,,,,,,,,,,16003,A,1,1,2022_May_11_1511,flanker-basic_v5,2021.2.3,240.87969238054995,
img/rightArrow.png,img/rightArrow.png,img/rightArrow.png,img/rightArrow.png,img/rightArrow.png,41,1,right,nonsocial_task_trials.xlsx,Alone,,,,,,,,,0,0,0,0,2,0,2,0,1,3,7,0,,,,,,,,,,,1.9238476953907817,,,,,,,,,,,,,,,,1,,,,,,,,,,,,,,,,,,,,430.88617829978466,431.0905404998921,430.88617829978466,431.0905404998921,430.88617829978466,431.0905404998921,430.88617829978466,431.0905404998921,430.88617829978466,431.0905404998921,430.88617829978466,430.88617829978466,['8'],[0.42108750017359853],430.88617829978466,430.88617829978466,,,,,,,,,,16003,A,1,1,2022_May_11_1511,flanker-basic_v5,2021.2.3,240.87969238054995,
img/rightArrow.png,img/leftArrow.png,img/leftArrow.png,img/leftArrow.png,img/leftArrow.png,43,0,right,nonsocial_task_trials.xlsx,Alone,,,,,,,,,0,0,0,0,2,0,2,0,2,0,8,2,,,,,,,,,,,1.5641282565130261,,,,,,,,,,,,,,,,1,,,,,,,,,,,,,,,,,,,,432.8594587999396,433.0617872001603,432.8594587999396,433.0617872001603,432.8594587999396,433.0617872001603,432.8594587999396,433.0617872001603,432.8594587999396,433.0617872001603,432.8594587999396,432.8594587999396,['8'],[0.4729220001026988],432.8594587999396,432.8594587999396,,,,,,,,,,16003,A,1,1,2022_May_11_1511,flanker-basic_v5,2021.2.3,240.87969238054995,
img/rightArrow.png,img/rightArrow.png,img/rightArrow.png,img/rightArrow.png,img/rightArrow.png,41,1,right,nonsocial_task_trials.xlsx,Alone,,,,,,,,,0,0,0,0,2,0,2,0,2,1,9,0,,,,,,,,,,,1.7374749498997997,,,,,,,,,,,,,,,,1,,,,,,,,,,,,,,,,,,,,434.4721234999597,434.67486929986626,434.4721234999597,434.67486929986626,434.4721234999597,434.67486929986626,434.4721234999597,434.67486929986626,434.4721234999597,434.67486929986626,434.4721234999597,434.4721234999597,['8'],[0.38205179991200566],434.4721234999597,434.4721234999597,,,,,,,,,,16003,A,1,1,2022_May_11_1511,flanker-basic_v5,2021.2.3,240.87969238054995,
img/leftArrow.png,img/leftArrow.png,img/leftArrow.png,img/leftArrow.png,img/leftArrow.png,42,1,left,nonsocial_task_trials.xlsx,Alone,,,,,,,,,0,0,0,0,2,0,2,0,2,2,10,1,,,,,,,,,,,1.5220440881763526,,,,,,,,,,,,,,,,1,,,,,,,,,,,,,,,,,,,,436.26165630016476,436.46371249994263,436.26165630016476,436.46371249994263,436.26165630016476,436.46371249994263,436.26165630016476,436.46371249994263,436.26165630016476,436.46371249994263,436.26165630016476,436.26165630016476,['1'],[0.3775407001376152],436.26165630016476,436.26165630016476,,,,,,,,,,16003,A,1,1,2022_May_11_1511,flanker-basic_v5,2021.2.3,240.87969238054995,
img/leftArrow.png,img/rightArrow.png,img/rightArrow.png,img/rightArrow.png,img/rightArrow.png,44,0,left,nonsocial_task_trials.xlsx,Alone,,,,,,,,,0,0,0,0,2,0,2,0,2,3,11,3,,,,,,,,,,,1.9819639278557113,,,,,,,,,,,,,,,,1,,,,,,,,,,,,,,,,,,,,437.8329591997899,438.0349844000302,437.8329591997899,438.0349844000302,437.8329591997899,438.0349844000302,437.8329591997899,438.0349844000302,437.8329591997899,438.0349844000302,437.8329591997899,437.8329591997899,['1'],[0.5520016001537442],437.8329591997899,437.8329591997899,,,,,,,,,,16003,A,1,1,2022_May_11_1511,flanker-basic_v5,2021.2.3,240.87969238054995,
img/rightArrow.png,img/leftArrow.png,img/leftArrow.png,img/leftArrow.png,img/leftArrow.png,43,0,right,nonsocial_task_trials.xlsx,Alone,,,,,,,,,0,0,0,0,2,0,2,0,3,0,12,2,,,,,,,,,,,1.8046092184368738,,,,,,,,,,,,,,,,1,,,,,,,,,,,,,,,,,,,,439.86188660003245,440.06551040010527,439.86188660003245,440.06551040010527,439.86188660003245,440.06551040010527,439.86188660003245,440.06551040010527,439.86188660003245,440.06551040010527,439.86188660003245,439.86188660003245,['8'],[0.42110890010371804],439.86188660003245,439.86188660003245,,,,,,,,,,16003,A,1,1,2022_May_11_1511,flanker-basic_v5,2021.2.3,240.87969238054995,
img/leftArrow.png,img/leftArrow.png,img/leftArrow.png,img/leftArrow.png,img/leftArrow.png,42,1,left,nonsocial_task_trials.xlsx,Alone,,,,,,,,,0,0,0,0,2,0,2,0,3,1,13,1,,,,,,,,,,,1.8997995991983967,,,,,,,,,,,,,,,,1,,,,,,,,,,,,,,,,,,,,441.7157509997487,441.919889499899,441.7157509997487,441.919889499899,441.7157509997487,441.919889499899,441.7157509997487,441.919889499899,441.7157509997487,441.919889499899,441.7157509997487,441.7157509997487,['1'],[0.3714703000150621],441.7157509997487,441.7157509997487,,,,,,,,,,16003,A,1,1,2022_May_11_1511,flanker-basic_v5,2021.2.3,240.87969238054995,
img/leftArrow.png,img/rightArrow.png,img/rightArrow.png,img/rightArrow.png,img/rightArrow.png,44,0,left,nonsocial_task_trials.xlsx,Alone,,,,,,,,,0,0,0,0,2,0,2,0,3,2,14,3,,,,,,,,,,,1.9108216432865732,,,,,,,,,,,,,,,,1,,,,,,,,,,,,,,,,,,,,443.6598295001313,443.8611316997558,443.6598295001313,443.8611316997558,443.6598295001313,443.8611316997558,443.6598295001313,443.8611316997558,443.6598295001313,443.8611316997558,443.6598295001313,443.6598295001313,['1'],[0.4663011999800801],443.6598295001313,443.6598295001313,,,,,,,,,,16003,A,1,1,2022_May_11_1511,flanker-basic_v5,2021.2.3,240.87969238054995,
img/rightArrow.png,img/rightArrow.png,img/rightArrow.png,img/rightArrow.png,img/rightArrow.png,41,1,right,nonsocial_task_trials.xlsx,Alone,,,,,,,,,0,0,0,0,2,0,2,0,3,3,15,0,,,,,,,,,,,1.5420841683366735,,,,,,,,,,,,,,,,1,,,,,,,,,,,,,,,,,,,,445.6179633997381,445.8209257000126,445.6179633997381,445.8209257000126,445.6179633997381,445.8209257000126,445.6179633997381,445.8209257000126,445.6179633997381,445.8209257000126,445.6179633997381,445.6179633997381,['8'],[0.3604065999388695],445.6179633997381,445.6179633997381,,,,,,,,,,16003,A,1,1,2022_May_11_1511,flanker-basic_v5,2021.2.3,240.87969238054995,
img/leftArrow.png,img/leftArrow.png,img/leftArrow.png,img/leftArrow.png,img/leftArrow.png,42,1,left,nonsocial_task_trials.xlsx,Alone,,,,,,,,,0,0,0,0,2,0,2,0,4,0,16,1,,,,,,,,,,,1.8547094188376752,,,,,,,,,,,,,,,,1,,,,,,,,,,,,,,,,,,,,447.2057499997318,447.4073263001628,447.2057499997318,447.4073263001628,447.2057499997318,447.4073263001628,447.2057499997318,447.4073263001628,447.2057499997318,447.4073263001628,447.2057499997318,447.2057499997318,['1'],[0.38520909985527396],447.2057499997318,447.2057499997318,,,,,,,,,,16003,A,1,1,2022_May_11_1511,flanker-basic_v5,2021.2.3,240.87969238054995,
img/rightArrow.png,img/leftArrow.png,img/leftArrow.png,img/leftArrow.png,img/leftArrow.png,43,0,right,nonsocial_task_trials.xlsx,Alone,,,,,,,,,0,0,0,0,2,0,2,0,4,1,17,2,,,,,,,,,,,1.9248496993987976,,,,,,,,,,,,,,,,1,,,,,,,,,,,,,,,,,,,,449.1076895999722,449.3107916000299,449.1076895999722,449.3107916000299,449.1076895999722,449.3107916000299,449.1076895999722,449.3107916000299,449.1076895999722,449.3107916000299,449.1076895999722,449.1076895999722,['8'],[0.3655679002404213],449.1076895999722,449.1076895999722,,,,,,,,,,16003,A,1,1,2022_May_11_1511,flanker-basic_v5,2021.2.3,240.87969238054995,
img/rightArrow.png,img/rightArrow.png,img/rightArrow.png,img/rightArrow.png,img/rightArrow.png,41,1,right,nonsocial_task_trials.xlsx,Alone,,,,,,,,,0,0,0,0,2,0,2,0,4,2,18,0,,,,,,,,,,,1.754509018036072,,,,,,,,,,,,,,,,1,,,,,,,,,,,,,,,,,,,,451.0821082997136,451.2835693000816,451.0821082997136,451.2835693000816,451.0821082997136,451.2835693000816,451.0821082997136,451.2835693000816,451.0821082997136,451.2835693000816,451.0821082997136,451.0821082997136,['8'],[0.37802019994705915],451.0821082997136,451.0821082997136,,,,,,,,,,16003,A,1,1,2022_May_11_1511,flanker-basic_v5,2021.2.3,240.87969238054995,
img/leftArrow.png,img/rightArrow.png,img/rightArrow.png,img/rightArrow.png,img/rightArrow.png,44,0,left,nonsocial_task_trials.xlsx,Alone,,,,,,,,,0,0,0,0,2,0,2,0,4,3,19,3,,,,,,,,,,,1.7264529058116231,,,,,,,,,,,,,,,,1,,,,,,,,,,,,,,,,,,,,452.880346799735,453.08092480013147,452.880346799735,453.08092480013147,452.880346799735,453.08092480013147,452.880346799735,453.08092480013147,452.880346799735,453.08092480013147,452.880346799735,452.880346799735,['1'],[0.4907964998856187],452.880346799735,452.880346799735,,,,,,,,,,16003,A,1,1,2022_May_11_1511,flanker-basic_v5,2021.2.3,240.87969238054995,
img/rightArrow.png,img/leftArrow.png,img/leftArrow.png,img/leftArrow.png,img/leftArrow.png,43,0,right,nonsocial_task_trials.xlsx,Alone,,,,,,,,,0,0,0,0,2,0,2,0,5,0,20,2,,,,,,,,,,,1.7755511022044088,,,,,,,,,,,,,,,,1,,,,,,,,,,,,,,,,,,,,454.65442729974166,454.85522409994155,454.65442729974166,454.85522409994155,454.65442729974166,454.85522409994155,454.65442729974166,454.85522409994155,454.65442729974166,454.85522409994155,454.65442729974166,454.65442729974166,['8'],[0.4368257001042366],454.65442729974166,454.65442729974166,,,,,,,,,,16003,A,1,1,2022_May_11_1511,flanker-basic_v5,2021.2.3,240.87969238054995,
img/leftArrow.png,img/leftArrow.png,img/leftArrow.png,img/leftArrow.png,img/leftArrow.png,42,1,left,nonsocial_task_trials.xlsx,Alone,,,,,,,,,0,0,0,0,2,0,2,0,5,1,21,1,,,,,,,,,,,1.5671342685370742,,,,,,,,,,,,,,,,1,,,,,,,,,,,,,,,,,,,,456.47508740006015,456.6754474998452,456.47508740006015,456.6754474998452,456.47508740006015,456.6754474998452,456.47508740006015,456.6754474998452,456.47508740006015,456.6754474998452,456.47508740006015,456.47508740006015,['1'],[0.3878955999389291],456.47508740006015,456.47508740006015,,,,,,,,,,16003,A,1,1,2022_May_11_1511,flanker-basic_v5,2021.2.3,240.87969238054995,
img/rightArrow.png,img/rightArrow.png,img/rightArrow.png,img/rightArrow.png,img/rightArrow.png,41,1,right,nonsocial_task_trials.xlsx,Alone,,,,,,,,,0,0,0,0,2,0,2,0,5,2,22,0,,,,,,,,,,,1.74749498997996,,,,,,,,,,,,,,,,1,,,,,,,,,,,,,,,,,,,,458.093461799901,458.29625999974087,458.093461799901,458.29625999974087,458.093461799901,458.29625999974087,458.093461799901,458.29625999974087,458.093461799901,458.29625999974087,458.093461799901,458.093461799901,['8'],[0.42159909987822175],458.093461799901,458.093461799901,,,,,,,,,,16003,A,1,1,2022_May_11_1511,flanker-basic_v5,2021.2.3,240.87969238054995,
img/leftArrow.png,img/rightArrow.png,img/rightArrow.png,img/rightArrow.png,img/rightArrow.png,44,0,left,nonsocial_task_trials.xlsx,Alone,,,,,,,,,0,0,0,0,2,0,2,0,5,3,23,3,,,,,,,,,,,1.9589178356713426,,,,,,,,,,,,,,,,1,,,,,,,,,,,,,,,,,,,,459.89516909979284,460.09782159980386,459.89516909979284,460.09782159980386,459.89516909979284,460.09782159980386,459.89516909979284,460.09782159980386,459.89516909979284,460.09782159980386,459.89516909979284,459.89516909979284,['1'],[0.3199758999980986],459.89516909979284,459.89516909979284,,,,,,,,,,16003,A,1,1,2022_May_11_1511,flanker-basic_v5,2021.2.3,240.87969238054995,
img/rightArrow.png,img/leftArrow.png,img/leftArrow.png,img/leftArrow.png,img/leftArrow.png,43,0,right,nonsocial_task_trials.xlsx,Alone,,,,,,,,,0,0,0,0,2,0,2,0,6,0,24,2,,,,,,,,,,,1.8326653306613225,,,,,,,,,,,,,,,,1,,,,,,,,,,,,,,,,,,,,461.90329949976876,462.10672050016,461.90329949976876,462.10672050016,461.90329949976876,462.10672050016,461.90329949976876,462.10672050016,461.90329949976876,462.10672050016,461.90329949976876,461.90329949976876,['8'],[0.36569719994440675],461.90329949976876,461.90329949976876,,,,,,,,,,16003,A,1,1,2022_May_11_1511,flanker-basic_v5,2021.2.3,240.87969238054995,
img/leftArrow.png,img/leftArrow.png,img/leftArrow.png,img/leftArrow.png,img/leftArrow.png,42,1,left,nonsocial_task_trials.xlsx,Alone,,,,,,,,,0,0,0,0,2,0,2,0,6,1,25,1,,,,,,,,,,,1.8947895791583167,,,,,,,,,,,,,,,,1,,,,,,,,,,,,,,,,,,,,463.78354969993234,463.9868793999776,463.78354969993234,463.9868793999776,463.78354969993234,463.9868793999776,463.78354969993234,463.9868793999776,463.78354969993234,463.9868793999776,463.78354969993234,463.78354969993234,['1'],[0.29052009992301464],463.78354969993234,463.78354969993234,,,,,,,,,,16003,A,1,1,2022_May_11_1511,flanker-basic_v5,2021.2.3,240.87969238054995,
img/leftArrow.png,img/rightArrow.png,img/rightArrow.png,img/rightArrow.png,img/rightArrow.png,44,0,left,nonsocial_task_trials.xlsx,Alone,,,,,,,,,0,0,0,0,2,0,2,0,6,2,26,3,,,,,,,,,,,1.783567134268537,,,,,,,,,,,,,,,,0,,,,,,,,,,,,,,,,,,,,465.72521180007607,465.9287012000568,465.72521180007607,465.9287012000568,465.72521180007607,465.9287012000568,465.72521180007607,465.9287012000568,465.72521180007607,465.9287012000568,465.72521180007607,465.72521180007607,['8'],[0.27497030002996325],465.72521180007607,465.72521180007607,,,,,,,,,,16003,A,1,1,2022_May_11_1511,flanker-basic_v5,2021.2.3,240.87969238054995,
img/rightArrow.png,img/rightArrow.png,img/rightArrow.png,img/rightArrow.png,img/rightArrow.png,41,1,right,nonsocial_task_trials.xlsx,Alone,,,,,,,,,0,0,0,0,2,0,2,0,6,3,27,0,,,,,,,,,,,1.9078156312625252,,,,,,,,,,,,,,,,1,,,,,,,,,,,,,,,,,,,,467.5591665999964,467.7632384998724,467.5591665999964,467.7632384998724,467.5591665999964,467.7632384998724,467.5591665999964,467.7632384998724,467.5591665999964,467.7632384998724,467.5591665999964,467.5591665999964,['8'],[0.4559102999046445],467.5591665999964,467.5591665999964,,,,,,,,,,16003,A,1,1,2022_May_11_1511,flanker-basic_v5,2021.2.3,240.87969238054995,
img/rightArrow.png,img/leftArrow.png,img/leftArrow.png,img/leftArrow.png,img/leftArrow.png,43,0,right,nonsocial_task_trials.xlsx,Alone,,,,,,,,,0,0,0,0,2,0,2,0,7,0,28,2,,,,,,,,,,,1.5761523046092183,,,,,,,,,,,,,,,,1,,,,,,,,,,,,,,,,,,,,469.5148310000077,469.7187187001109,469.5148310000077,469.7187187001109,469.5148310000077,469.7187187001109,469.5148310000077,469.7187187001109,469.5148310000077,469.7187187001109,469.5148310000077,469.5148310000077,['8'],[0.532400599680841],469.5148310000077,469.5148310000077,,,,,,,,,,16003,A,1,1,2022_May_11_1511,flanker-basic_v5,2021.2.3,240.87969238054995,
img/rightArrow.png,img/rightArrow.png,img/rightArrow.png,img/rightArrow.png,img/rightArrow.png,41,1,right,nonsocial_task_trials.xlsx,Alone,,,,,,,,,0,0,0,0,2,0,2,0,7,1,29,0,,,,,,,,,,,1.6643286573146292,,,,,,,,,,,,,,,,1,,,,,,,,,,,,,,,,,,,,471.14053269987926,471.3403778001666,471.14053269987926,471.3403778001666,471.14053269987926,471.3403778001666,471.14053269987926,471.3403778001666,471.14053269987926,471.3403778001666,471.14053269987926,471.14053269987926,['8'],[0.34876889968290925],471.14053269987926,471.14053269987926,,,,,,,,,,16003,A,1,1,2022_May_11_1511,flanker-basic_v5,2021.2.3,240.87969238054995,
img/leftArrow.png,img/rightArrow.png,img/rightArrow.png,img/rightArrow.png,img/rightArrow.png,44,0,left,nonsocial_task_trials.xlsx,Alone,,,,,,,,,0,0,0,0,2,0,2,0,7,2,30,3,,,,,,,,,,,1.6092184368737477,,,,,,,,,,,,,,,,1,,,,,,,,,,,,,,,,,,,,472.8512976998463,473.05422660009935,472.8512976998463,473.05422660009935,472.8512976998463,473.05422660009935,472.8512976998463,473.05422660009935,472.8512976998463,473.05422660009935,472.8512976998463,472.8512976998463,['1'],[0.4657236998900771],472.8512976998463,472.8512976998463,,,,,,,,,,16003,A,1,1,2022_May_11_1511,flanker-basic_v5,2021.2.3,240.87969238054995,
img/leftArrow.png,img/leftArrow.png,img/leftArrow.png,img/leftArrow.png,img/leftArrow.png,42,1,left,nonsocial_task_trials.xlsx,Alone,,,,,,,,,0,0,0,0,2,0,2,0,7,3,31,1,,,,,,,,,,,1.997995991983968,,,,,,,,,,,,,,,,1,,,,,,,,,,,,,,,,,,,,474.506782699842,474.7061387998983,474.506782699842,474.7061387998983,474.506782699842,474.7061387998983,474.506782699842,474.7061387998983,474.506782699842,474.7061387998983,474.506782699842,474.506782699842,['1'],[0.454540700186044],474.506782699842,474.506782699842,,,,,,,,,,16003,A,1,1,2022_May_11_1511,flanker-basic_v5,2021.2.3,240.87969238054995,
img/rightArrow.png,img/rightArrow.png,img/rightArrow.png,img/rightArrow.png,img/rightArrow.png,41,1,right,nonsocial_task_trials.xlsx,Alone,,,,,,,,,0,0,0,0,2,0,2,0,8,0,32,0,,,,,,,,,,,1.9949899799599198,,,,,,,,,,,,,,,,1,,,,,,,,,,,,,,,,,,,,476.55001170001924,476.75083079980686,476.55001170001924,476.75083079980686,476.55001170001924,476.75083079980686,476.55001170001924,476.75083079980686,476.55001170001924,476.75083079980686,476.55001170001924,476.55001170001924,['8'],[0.4072627001442015],476.55001170001924,476.55001170001924,,,,,,,,,,16003,A,1,1,2022_May_11_1511,flanker-basic_v5,2021.2.3,240.87969238054995,
img/leftArrow.png,img/leftArrow.png,img/leftArrow.png,img/leftArrow.png,img/leftArrow.png,42,1,left,nonsocial_task_trials.xlsx,Alone,,,,,,,,,0,0,0,0,2,0,2,0,8,1,33,1,,,,,,,,,,,1.779559118236473,,,,,,,,,,,,,,,,1,,,,,,,,,,,,,,,,,,,,478.5926561001688,478.79639270016924,478.5926561001688,478.79639270016924,478.5926561001688,478.79639270016924,478.5926561001688,478.79639270016924,478.5926561001688,478.79639270016924,478.5926561001688,478.5926561001688,['1'],[0.27258280012756586],478.5926561001688,478.5926561001688,,,,,,,,,,16003,A,1,1,2022_May_11_1511,flanker-basic_v5,2021.2.3,240.87969238054995,
img/leftArrow.png,img/rightArrow.png,img/rightArrow.png,img/rightArrow.png,img/rightArrow.png,44,0,left,nonsocial_task_trials.xlsx,Alone,,,,,,,,,0,0,0,0,2,0,2,0,8,2,34,3,,,,,,,,,,,1.7354709418837675,,,,,,,,,,,,,,,,1,,,,,,,,,,,,,,,,,,,,480.4211284001358,480.6205567000434,480.4211284001358,480.6205567000434,480.4211284001358,480.6205567000434,480.4211284001358,480.6205567000434,480.4211284001358,480.6205567000434,480.4211284001358,480.4211284001358,['1'],[0.47821079986169934],480.4211284001358,480.4211284001358,,,,,,,,,,16003,A,1,1,2022_May_11_1511,flanker-basic_v5,2021.2.3,240.87969238054995,
img/rightArrow.png,img/leftArrow.png,img/leftArrow.png,img/leftArrow.png,img/leftArrow.png,43,0,right,nonsocial_task_trials.xlsx,Alone,,,,,,,,,0,0,0,0,2,0,2,0,8,3,35,2,,,,,,,,,,,1.9559118236472945,,,,,,,,,,,,,,,,1,,,,,,,,,,,,,,,,,,,,482.2018201998435,482.40356139978394,482.2018201998435,482.40356139978394,482.2018201998435,482.40356139978394,482.2018201998435,482.40356139978394,482.2018201998435,482.40356139978394,482.2018201998435,482.2018201998435,['8'],[0.44962790003046393],482.2018201998435,482.2018201998435,,,,,,,,,,16003,A,1,1,2022_May_11_1511,flanker-basic_v5,2021.2.3,240.87969238054995,
img/leftArrow.png,img/leftArrow.png,img/leftArrow.png,img/leftArrow.png,img/leftArrow.png,42,1,left,nonsocial_task_trials.xlsx,Alone,,,,,,,,,0,0,0,0,2,0,2,0,9,0,36,1,,,,,,,,,,,1.8396793587174347,,,,,,,,,,,,,,,,1,,,,,,,,,,,,,,,,,,,,484.20486629987136,484.4058628999628,484.20486629987136,484.4058628999628,484.20486629987136,484.4058628999628,484.20486629987136,484.4058628999628,484.20486629987136,484.4058628999628,484.20486629987136,484.20486629987136,['1'],[0.39326969999819994],484.20486629987136,484.20486629987136,,,,,,,,,,16003,A,1,1,2022_May_11_1511,flanker-basic_v5,2021.2.3,240.87969238054995,
img/rightArrow.png,img/rightArrow.png,img/rightArrow.png,img/rightArrow.png,img/rightArrow.png,41,1,right,nonsocial_task_trials.xlsx,Alone,,,,,,,,,0,0,0,0,2,0,2,0,9,1,37,0,,,,,,,,,,,1.7204408817635268,,,,,,,,,,,,,,,,1,,,,,,,,,,,,,,,,,,,,486.09224590007216,486.29393619997427,486.09224590007216,486.29393619997427,486.09224590007216,486.29393619997427,486.09224590007216,486.29393619997427,486.09224590007216,486.29393619997427,486.09224590007216,486.09224590007216,['8'],[0.3530490999110043],486.09224590007216,486.09224590007216,,,,,,,,,,16003,A,1,1,2022_May_11_1511,flanker-basic_v5,2021.2.3,240.87969238054995,
img/rightArrow.png,img/leftArrow.png,img/leftArrow.png,img/leftArrow.png,img/leftArrow.png,43,0,right,nonsocial_task_trials.xlsx,Alone,,,,,,,,,0,0,0,0,2,0,2,0,9,2,38,2,,,,,,,,,,,1.8927855711422845,,,,,,,,,,,,,,,,1,,,,,,,,,,,,,,,,,,,,487.8615228999406,488.0646013999358,487.8615228999406,488.0646013999358,487.8615228999406,488.0646013999358,487.8615228999406,488.0646013999358,487.8615228999406,488.0646013999358,487.8615228999406,487.8615228999406,['8'],[0.501382099930197],487.8615228999406,487.8615228999406,,,,,,,,,,16003,A,1,1,2022_May_11_1511,flanker-basic_v5,2021.2.3,240.87969238054995,
img/leftArrow.png,img/rightArrow.png,img/rightArrow.png,img/rightArrow.png,img/rightArrow.png,44,0,left,nonsocial_task_trials.xlsx,Alone,,,,,,,,,0,0,0,0,2,0,2,0,9,3,39,3,,,,,,,,,,,1.7104208416833666,,,,,,,,,,,,,,,,1,,,,,,,,,,,,,,,,,,,,489.7981591997668,489.99941230006516,489.7981591997668,489.99941230006516,489.7981591997668,489.99941230006516,489.7981591997668,489.99941230006516,489.7981591997668,489.99941230006516,489.7981591997668,489.7981591997668,['1'],[0.4420241001062095],489.7981591997668,489.7981591997668,,,,,,,,,,16003,A,1,1,2022_May_11_1511,flanker-basic_v5,2021.2.3,240.87969238054995,
img/leftArrow.png,img/leftArrow.png,img/leftArrow.png,,,,,,nonsocial_task_trials.xlsx,Alone,,,,,,,,,0,0,0,0,2,0,2,0,,,,,,,,,,,,,,,,,,,,,,,,,,,,,,,,,,,,,,,,,,,,,,,,,,,,,,,,,,,,,,,,,,,2,491.5161509998143,None,8,0.5718678999692202,501.5136631000787,None,,,16003,A,1,1,2022_May_11_1511,flanker-basic_v5,2021.2.3,240.87969238054995,
img/leftArrow.png,img/leftArrow.png,img/leftArrow.png,img/leftArrow.png,img/leftArrow.png,42,1,left,nonsocial_task_trials.xlsx,Alone,,,,,,,,,0,0,0,0,3,0,3,0,0,0,0,1,,,,,,,,,504.7342690001242,None,1.7945891783567134,,,,,,,,,,,,,,,,1,,,,,,,,,,,,,,502.1016417997889,None,8,2.617205500137061,502.1016417997889,None,507.7902382998727,507.99077469995245,507.7902382998727,507.99077469995245,507.7902382998727,507.99077469995245,507.7902382998727,507.99077469995245,507.7902382998727,507.99077469995245,507.7902382998727,None,['1'],[0.7007863000035286],507.7902382998727,None,,,,,,,,,,16003,A,1,1,2022_May_11_1511,flanker-basic_v5,2021.2.3,240.87969238054995,
